row;rt;stimulus;key_press;trial_type;trial_index;time_elapsed;internal_node_id;button_pressed;play_history;responses;question_order;prolific_pid;conditions
1;7485.85;"<div style='max-width:700px;'><p>For this experiment, you will listen to 5 pairs of rhythms and choose which rhythm in each pair sounds more unusual.</p><p>You will need to be able to hear audio in order to complete the experiment.</p><p>Press any key to ";13;html-keyboard-response;0;7488;0.0-0.0;NULL;NULL;NULL;NULL;5d09364814de190001842a1f;typicality
2;NULL;base64.wav;NULL;audio-keyboard-response;1;13491;0.0-1.0-0.0;NULL;NULL;NULL;NULL;5d09364814de190001842a1f;typicality
3;1162.13;base64.wav;87;audio-keyboard-response;2;14655;0.0-1.1-0.1;NULL;NULL;NULL;NULL;5d09364814de190001842a1f;typicality
4;26893.7;"["patterns/Rhythm-36.mp3","patterns/Rhythm-25.mp3"]";NULL;forced-choice-audio;3;41550;0.0-2.0;1;[0,1];NULL;NULL;5d09364814de190001842a1f;typicality
5;23181.1;"["patterns/Rhythm-53.mp3","patterns/Rhythm-90.mp3"]";NULL;forced-choice-audio;4;65233;0.0-3.0;0;[0,1];NULL;NULL;5d09364814de190001842a1f;typicality
6;22997.4;"["patterns/Rhythm-49.mp3","patterns/Rhythm-64.mp3"]";NULL;forced-choice-audio;5;88733;0.0-4.0;1;[0,1];NULL;NULL;5d09364814de190001842a1f;typicality
7;22324;"["patterns/Rhythm-63.mp3","patterns/Rhythm-25.mp3"]";NULL;forced-choice-audio;6;111559;0.0-5.0;1;[0,1];NULL;NULL;5d09364814de190001842a1f;typicality
8;22223.1;"["patterns/Rhythm-31.mp3","patterns/Rhythm-72.mp3"]";NULL;forced-choice-audio;7;134284;0.0-6.0;0;[0,1];NULL;NULL;5d09364814de190001842a1f;typicality
9;22470.2;"["patterns/Rhythm-36.mp3","patterns/Rhythm-9.mp3"]";NULL;forced-choice-audio;8;157256;0.0-7.0;1;[0,1];NULL;NULL;5d09364814de190001842a1f;typicality
10;2929.7;"<p>Now you will answer a few questions.</p><p>Press any key to continue.</p>";32;html-keyboard-response;9;160687;0.0-8.0;NULL;NULL;NULL;NULL;5d09364814de190001842a1f;typicality
11;23303.4;NULL;NULL;survey-text;10;184494;0.0-9.0;NULL;NULL;"{"HowManyHours":"12","HowManyYears":"0"}";NULL;5d09364814de190001842a1f;typicality
12;10433.1;NULL;NULL;survey-multi-select;11;195430;0.0-10.0;NULL;NULL;"{"Q0":[]}";[0];5d09364814de190001842a1f;typicality
13;19625.1;"<div style='max-width:700px;'><p>For this experiment, you will listen to 5 pairs of rhythms and choose which rhythm in each pair you like more.</p><p>You will need to be able to hear audio in order to complete the experiment.</p><p>Press any key to contin";13;html-keyboard-response;0;19627;0.0-0.0;NULL;NULL;NULL;NULL;5c2e7158a0852500014ceb0b;preference
14;4988.81;base64.wav;87;audio-keyboard-response;1;25117;0.0-1.0-0.0;NULL;NULL;NULL;NULL;5c2e7158a0852500014ceb0b;preference
15;24889.1;"["patterns/Rhythm-50.mp3","patterns/Rhythm-38.mp3"]";NULL;forced-choice-audio;2;50008;0.0-2.0;0;[0,1];NULL;NULL;5c2e7158a0852500014ceb0b;preference
16;43028.6;"["patterns/Rhythm-75.mp3","patterns/Rhythm-45.mp3"]";NULL;forced-choice-audio;3;93538;0.0-3.0;0;[0,1];NULL;NULL;5c2e7158a0852500014ceb0b;preference
17;67941.9;"["patterns/Rhythm-92.mp3","patterns/Rhythm-89.mp3"]";NULL;forced-choice-audio;4;161983;0.0-4.0;1;[0,1];NULL;NULL;5c2e7158a0852500014ceb0b;preference
18;22339.2;"["patterns/Rhythm-90.mp3","patterns/Rhythm-38.mp3"]";NULL;forced-choice-audio;5;184824;0.0-5.0;0;[0,1];NULL;NULL;5c2e7158a0852500014ceb0b;preference
19;22835.1;"["patterns/Rhythm-67.mp3","patterns/Rhythm-4.mp3"]";NULL;forced-choice-audio;6;208161;0.0-6.0;1;[0,1];NULL;NULL;5c2e7158a0852500014ceb0b;preference
20;22630.1;"["patterns/Rhythm-50.mp3","patterns/Rhythm-84.mp3"]";NULL;forced-choice-audio;7;231292;0.0-7.0;0;[0,1];NULL;NULL;5c2e7158a0852500014ceb0b;preference
21;2206.92;"<p>Now you will answer a few questions.</p><p>Press any key to continue.</p>";13;html-keyboard-response;8;234000;0.0-8.0;NULL;NULL;NULL;NULL;5c2e7158a0852500014ceb0b;preference
22;22458.4;NULL;NULL;survey-text;9;256962;0.0-9.0;NULL;NULL;"{"HowManyHours":"4-5 per day","HowManyYears":"2"}";NULL;5c2e7158a0852500014ceb0b;preference
23;10322.6;NULL;NULL;survey-multi-select;10;267788;0.0-10.0;NULL;NULL;"{"Q0":["I took/take private music lessons."]}";[0];5c2e7158a0852500014ceb0b;preference
24;1805;"<div style='max-width:700px;'><p>For this experiment, you will listen to 5 pairs of rhythms and choose which rhythm in each pair sounds more unusual.</p><p>You will need to be able to hear audio in order to complete the experiment.</p><p>Press any key to ";183;html-keyboard-response;0;1810;0.0-0.0;NULL;NULL;NULL;NULL;5d60061e45714d00019ad6a4;typicality
25;NULL;base64.wav;NULL;audio-keyboard-response;1;7834;0.0-1.0-0.0;NULL;NULL;NULL;NULL;5d60061e45714d00019ad6a4;typicality
26;NULL;base64.wav;NULL;audio-keyboard-response;2;13338;0.0-1.1-0.1;NULL;NULL;NULL;NULL;5d60061e45714d00019ad6a4;typicality
27;NULL;base64.wav;NULL;audio-keyboard-response;3;18844;0.0-1.2-0.2;NULL;NULL;NULL;NULL;5d60061e45714d00019ad6a4;typicality
28;976;base64.wav;87;audio-keyboard-response;4;19821;0.0-1.3-0.3;NULL;NULL;NULL;NULL;5d60061e45714d00019ad6a4;typicality
29;28603;"["patterns/Rhythm-77.mp3","patterns/Rhythm-51.mp3"]";NULL;forced-choice-audio;5;48429;0.0-2.0;1;[0,1];NULL;NULL;5d60061e45714d00019ad6a4;typicality
30;28636;"["patterns/Rhythm-71.mp3","patterns/Rhythm-74.mp3"]";NULL;forced-choice-audio;6;77591;0.0-3.0;1;[0,1];NULL;NULL;5d60061e45714d00019ad6a4;typicality
31;23913;"["patterns/Rhythm-41.mp3","patterns/Rhythm-8.mp3"]";NULL;forced-choice-audio;7;102019;0.0-4.0;0;[0,1];NULL;NULL;5d60061e45714d00019ad6a4;typicality
32;23432;"["patterns/Rhythm-14.mp3","patterns/Rhythm-51.mp3"]";NULL;forced-choice-audio;8;125957;0.0-5.0;0;[0,1];NULL;NULL;5d60061e45714d00019ad6a4;typicality
33;25040;"["patterns/Rhythm-96.mp3","patterns/Rhythm-59.mp3"]";NULL;forced-choice-audio;9;151514;0.0-6.0;1;[0,1];NULL;NULL;5d60061e45714d00019ad6a4;typicality
34;22125;"["patterns/Rhythm-77.mp3","patterns/Rhythm-3.mp3"]";NULL;forced-choice-audio;10;174158;0.0-7.0;1;[0,1];NULL;NULL;5d60061e45714d00019ad6a4;typicality
35;3417;"<p>Now you will answer a few questions.</p><p>Press any key to continue.</p>";32;html-keyboard-response;11;178090;0.0-8.0;NULL;NULL;NULL;NULL;5d60061e45714d00019ad6a4;typicality
36;33801;NULL;NULL;survey-text;12;212421;0.0-9.0;NULL;NULL;"{"HowManyHours":"5","HowManyYears":"12"}";NULL;5d60061e45714d00019ad6a4;typicality
37;19094;NULL;NULL;survey-multi-select;13;232043;0.0-10.0;NULL;NULL;"{"Q0":["I took/take music classes in college."]}";[0];5d60061e45714d00019ad6a4;typicality
38;7675.67;"<div style='max-width:700px;'><p>For this experiment, you will listen to 5 pairs of rhythms and choose which rhythm in each pair you like more.</p><p>You will need to be able to hear audio in order to complete the experiment.</p><p>Press any key to contin";32;html-keyboard-response;0;7679;0.0-0.0;NULL;NULL;NULL;NULL;5d5ff32159b66b00010ba9e4;preference
39;NULL;base64.wav;NULL;audio-keyboard-response;1;13697;0.0-1.0-0.0;NULL;NULL;NULL;NULL;5d5ff32159b66b00010ba9e4;preference
40;NULL;base64.wav;NULL;audio-keyboard-response;2;19199;0.0-1.1-0.1;NULL;NULL;NULL;NULL;5d5ff32159b66b00010ba9e4;preference
41;4132.45;base64.wav;87;audio-keyboard-response;3;23334;0.0-1.2-0.2;NULL;NULL;NULL;NULL;5d5ff32159b66b00010ba9e4;preference
42;42719.8;"["patterns/Rhythm-59.mp3","patterns/Rhythm-7.mp3"]";NULL;forced-choice-audio;4;66060;0.0-2.0;1;[0,1];NULL;NULL;5d5ff32159b66b00010ba9e4;preference
43;37880.1;"["patterns/Rhythm-63.mp3","patterns/Rhythm-65.mp3"]";NULL;forced-choice-audio;5;104452;0.0-3.0;0;[0,1,0];NULL;NULL;5d5ff32159b66b00010ba9e4;preference
44;35658.9;"["patterns/Rhythm-23.mp3","patterns/Rhythm-92.mp3"]";NULL;forced-choice-audio;6;140625;0.0-4.0;0;[0,1,0];NULL;NULL;5d5ff32159b66b00010ba9e4;preference
45;32490.5;"["patterns/Rhythm-19.mp3","patterns/Rhythm-7.mp3"]";NULL;forced-choice-audio;7;173620;0.0-5.0;1;[0,1,0];NULL;NULL;5d5ff32159b66b00010ba9e4;preference
46;46436.5;"["patterns/Rhythm-94.mp3","patterns/Rhythm-13.mp3"]";NULL;forced-choice-audio;8;220562;0.0-6.0;0;[0,1,0,1];NULL;NULL;5d5ff32159b66b00010ba9e4;preference
47;46451.5;"["patterns/Rhythm-59.mp3","patterns/Rhythm-1.mp3"]";NULL;forced-choice-audio;9;267531;0.0-7.0;1;[0,1,0,1];NULL;NULL;5d5ff32159b66b00010ba9e4;preference
48;3064.32;"<p>Now you will answer a few questions.</p><p>Press any key to continue.</p>";32;html-keyboard-response;10;271108;0.0-8.0;NULL;NULL;NULL;NULL;5d5ff32159b66b00010ba9e4;preference
49;140101;NULL;NULL;survey-text;11;411730;0.0-9.0;NULL;NULL;"{"HowManyHours":"3","HowManyYears":"learned to play flute at a young age. Got to grade 5. Was very good at it but that was about 25 years ago. Learnt to play guitar as well so have a basic understanding of music and theory."}";NULL;5d5ff32159b66b00010ba9e4;preference
50;15649.7;NULL;NULL;survey-multi-select;12;427889;0.0-10.0;NULL;NULL;"{"Q0":["I took/take general music in primary school.","I took/take private music lessons."]}";[0];5d5ff32159b66b00010ba9e4;preference
51;5532.64;"<div style='max-width:700px;'><p>For this experiment, you will listen to 5 pairs of rhythms and choose which rhythm in each pair you like more.</p><p>You will need to be able to hear audio in order to complete the experiment.</p><p>Press any key to contin";13;html-keyboard-response;0;5534;0.0-0.0;NULL;NULL;NULL;NULL;5ab16bbac4e8f200014b6d0c;preference
52;4773.04;base64.wav;87;audio-keyboard-response;1;10809;0.0-1.0-0.0;NULL;NULL;NULL;NULL;5ab16bbac4e8f200014b6d0c;preference
53;24849.1;"["patterns/Rhythm-60.mp3","patterns/Rhythm-65.mp3"]";NULL;forced-choice-audio;2;35660;0.0-2.0;0;[0,1];NULL;NULL;5ab16bbac4e8f200014b6d0c;preference
54;22338.4;"["patterns/Rhythm-11.mp3","patterns/Rhythm-27.mp3"]";NULL;forced-choice-audio;3;58499;0.0-3.0;1;[0,1];NULL;NULL;5ab16bbac4e8f200014b6d0c;preference
55;21728.8;"["patterns/Rhythm-86.mp3","patterns/Rhythm-34.mp3"]";NULL;forced-choice-audio;4;80730;0.0-4.0;0;[0,1];NULL;NULL;5ab16bbac4e8f200014b6d0c;preference
56;33743.3;"["patterns/Rhythm-71.mp3","patterns/Rhythm-65.mp3"]";NULL;forced-choice-audio;5;114974;0.0-5.0;0;[0,0,1];NULL;NULL;5ab16bbac4e8f200014b6d0c;preference
57;21312.7;"["patterns/Rhythm-73.mp3","patterns/Rhythm-81.mp3"]";NULL;forced-choice-audio;6;136789;0.0-6.0;1;[0,1];NULL;NULL;5ab16bbac4e8f200014b6d0c;preference
58;23317.4;"["patterns/Rhythm-60.mp3","patterns/Rhythm-48.mp3"]";NULL;forced-choice-audio;7;160608;0.0-7.0;0;[0,1];NULL;NULL;5ab16bbac4e8f200014b6d0c;preference
59;6855.71;"<p>Now you will answer a few questions.</p><p>Press any key to continue.</p>";87;html-keyboard-response;8;167965;0.0-8.0;NULL;NULL;NULL;NULL;5ab16bbac4e8f200014b6d0c;preference
60;26454.7;NULL;NULL;survey-text;9;194923;0.0-9.0;NULL;NULL;"{"HowManyHours":"3","HowManyYears":"3"}";NULL;5ab16bbac4e8f200014b6d0c;preference
61;144483;NULL;NULL;survey-multi-select;10;339909;0.0-10.0;NULL;NULL;"{"Q0":["I took/take instrumental/choir classes in high school."]}";[0];5ab16bbac4e8f200014b6d0c;preference
62;8147.8;"<div style='max-width:700px;'><p>For this experiment, you will listen to 5 pairs of rhythms and choose which rhythm in each pair you like more.</p><p>You will need to be able to hear audio in order to complete the experiment.</p><p>Press any key to contin";70;html-keyboard-response;0;8150;0.0-0.0;NULL;NULL;NULL;NULL;5d4c65d1de72600016f87c14;preference
63;4079.51;base64.wav;87;audio-keyboard-response;1;12734;0.0-1.0-0.0;NULL;NULL;NULL;NULL;5d4c65d1de72600016f87c14;preference
64;24291.8;"["patterns/Rhythm-40.mp3","patterns/Rhythm-34.mp3"]";NULL;forced-choice-audio;2;37029;0.0-2.0;0;[0,1];NULL;NULL;5d4c65d1de72600016f87c14;preference
65;22966.8;"["patterns/Rhythm-2.mp3","patterns/Rhythm-58.mp3"]";NULL;forced-choice-audio;3;60501;0.0-3.0;1;[0,1];NULL;NULL;5d4c65d1de72600016f87c14;preference
66;29061.6;"["patterns/Rhythm-37.mp3","patterns/Rhythm-70.mp3"]";NULL;forced-choice-audio;4;90064;0.0-4.0;1;[0,1,1];NULL;NULL;5d4c65d1de72600016f87c14;preference
67;22687.5;"["patterns/Rhythm-52.mp3","patterns/Rhythm-34.mp3"]";NULL;forced-choice-audio;5;113256;0.0-5.0;0;[1,0];NULL;NULL;5d4c65d1de72600016f87c14;preference
68;23124;"["patterns/Rhythm-21.mp3","patterns/Rhythm-74.mp3"]";NULL;forced-choice-audio;6;136882;0.0-6.0;0;[0,1];NULL;NULL;5d4c65d1de72600016f87c14;preference
69;21864.1;"["patterns/Rhythm-40.mp3","patterns/Rhythm-92.mp3"]";NULL;forced-choice-audio;7;159248;0.0-7.0;1;[0,1];NULL;NULL;5d4c65d1de72600016f87c14;preference
70;4672.78;"<p>Now you will answer a few questions.</p><p>Press any key to continue.</p>";87;html-keyboard-response;8;164422;0.0-8.0;NULL;NULL;NULL;NULL;5d4c65d1de72600016f87c14;preference
71;19998.5;NULL;NULL;survey-text;9;184928;0.0-9.0;NULL;NULL;"{"HowManyHours":"15","HowManyYears":"0"}";NULL;5d4c65d1de72600016f87c14;preference
72;16743.8;NULL;NULL;survey-multi-select;10;202178;0.0-10.0;NULL;NULL;"{"Q0":["I took/take general music in primary school.","I took/take private music lessons."]}";[0];5d4c65d1de72600016f87c14;preference
73;31711.5;"<div style='max-width:700px;'><p>For this experiment, you will listen to 5 pairs of rhythms and choose which rhythm in each pair you like more.</p><p>You will need to be able to hear audio in order to complete the experiment.</p><p>Press any key to contin";32;html-keyboard-response;0;31716;0.0-0.0;NULL;NULL;NULL;NULL;572aea4fa11b99000875db8d;preference
74;5287.14;base64.wav;87;audio-keyboard-response;1;37509;0.0-1.0-0.0;NULL;NULL;NULL;NULL;572aea4fa11b99000875db8d;preference
75;30914.1;"["patterns/Rhythm-72.mp3","patterns/Rhythm-35.mp3"]";NULL;forced-choice-audio;2;68426;0.0-2.0;0;[0,1];NULL;NULL;572aea4fa11b99000875db8d;preference
76;26687.3;"["patterns/Rhythm-63.mp3","patterns/Rhythm-43.mp3"]";NULL;forced-choice-audio;3;95617;0.0-3.0;0;[0,1];NULL;NULL;572aea4fa11b99000875db8d;preference
77;53954.5;"["patterns/Rhythm-81.mp3","patterns/Rhythm-58.mp3"]";NULL;forced-choice-audio;4;150074;0.0-4.0;0;[0,1,0];NULL;NULL;572aea4fa11b99000875db8d;preference
78;37412.2;"["patterns/Rhythm-12.mp3","patterns/Rhythm-35.mp3"]";NULL;forced-choice-audio;5;187989;0.0-5.0;0;[0,1,0];NULL;NULL;572aea4fa11b99000875db8d;preference
79;48856.3;"["patterns/Rhythm-88.mp3","patterns/Rhythm-48.mp3"]";NULL;forced-choice-audio;6;237349;0.0-6.0;0;[0,1,0,1];NULL;NULL;572aea4fa11b99000875db8d;preference
80;35641.5;"["patterns/Rhythm-72.mp3","patterns/Rhythm-20.mp3"]";NULL;forced-choice-audio;7;273493;0.0-7.0;0;[0,1,1];NULL;NULL;572aea4fa11b99000875db8d;preference
81;3330.34;"<p>Now you will answer a few questions.</p><p>Press any key to continue.</p>";88;html-keyboard-response;8;277326;0.0-8.0;NULL;NULL;NULL;NULL;572aea4fa11b99000875db8d;preference
82;11986.2;NULL;NULL;survey-text;9;289818;0.0-9.0;NULL;NULL;"{"HowManyHours":"1","HowManyYears":"5"}";NULL;572aea4fa11b99000875db8d;preference
83;19483.9;NULL;NULL;survey-multi-select;10;309812;0.0-10.0;NULL;NULL;"{"Q0":["I took/take private music lessons.","I took/take instrumental/choir classes in high school."]}";[0];572aea4fa11b99000875db8d;preference
84;2578.59;"<div style='max-width:700px;'><p>For this experiment, you will listen to 5 pairs of rhythms and choose which rhythm in each pair sounds more unusual.</p><p>You will need to be able to hear audio in order to complete the experiment.</p><p>Press any key to ";32;html-keyboard-response;0;2581;0.0-0.0;NULL;NULL;NULL;NULL;59e7377f5de9b000017ed200;typicality
85;4952.42;base64.wav;87;audio-keyboard-response;1;8037;0.0-1.0-0.0;NULL;NULL;NULL;NULL;59e7377f5de9b000017ed200;typicality
86;27356.2;"["patterns/Rhythm-93.mp3","patterns/Rhythm-2.mp3"]";NULL;forced-choice-audio;2;35395;0.0-2.0;1;[0,1];NULL;NULL;59e7377f5de9b000017ed200;typicality
87;27615.6;"["patterns/Rhythm-32.mp3","patterns/Rhythm-51.mp3"]";NULL;forced-choice-audio;3;63513;0.0-3.0;0;[0,1];NULL;NULL;59e7377f5de9b000017ed200;typicality
88;23945.2;"["patterns/Rhythm-37.mp3","patterns/Rhythm-65.mp3"]";NULL;forced-choice-audio;4;87960;0.0-4.0;0;[0,1];NULL;NULL;59e7377f5de9b000017ed200;typicality
89;23689.4;"["patterns/Rhythm-19.mp3","patterns/Rhythm-2.mp3"]";NULL;forced-choice-audio;5;112151;0.0-5.0;0;[0,1];NULL;NULL;59e7377f5de9b000017ed200;typicality
90;24200.4;"["patterns/Rhythm-7.mp3","patterns/Rhythm-72.mp3"]";NULL;forced-choice-audio;6;136854;0.0-6.0;1;[0,1];NULL;NULL;59e7377f5de9b000017ed200;typicality
91;24082;"["patterns/Rhythm-93.mp3","patterns/Rhythm-36.mp3"]";NULL;forced-choice-audio;7;161438;0.0-7.0;1;[0,1];NULL;NULL;59e7377f5de9b000017ed200;typicality
92;2350.67;"<p>Now you will answer a few questions.</p><p>Press any key to continue.</p>";32;html-keyboard-response;8;164293;0.0-8.0;NULL;NULL;NULL;NULL;59e7377f5de9b000017ed200;typicality
93;14457;NULL;NULL;survey-text;9;179255;0.0-9.0;NULL;NULL;"{"HowManyHours":"0","HowManyYears":"0"}";NULL;59e7377f5de9b000017ed200;typicality
94;14480.5;NULL;NULL;survey-multi-select;10;194239;0.0-10.0;NULL;NULL;"{"Q0":["I took/take general music in primary school.","I took/take instrumental/choir classes in high school."]}";[0];59e7377f5de9b000017ed200;typicality
95;5211.7;"<div style='max-width:700px;'><p>For this experiment, you will listen to 5 pairs of rhythms and choose which rhythm in each pair you like more.</p><p>You will need to be able to hear audio in order to complete the experiment.</p><p>Press any key to contin";32;html-keyboard-response;0;5215;0.0-0.0;NULL;NULL;NULL;NULL;5b9a048d699f51000119ccd8;preference
96;4585.61;base64.wav;87;audio-keyboard-response;1;10304;0.0-1.0-0.0;NULL;NULL;NULL;NULL;5b9a048d699f51000119ccd8;preference
97;25872.5;"["patterns/Rhythm-37.mp3","patterns/Rhythm-22.mp3"]";NULL;forced-choice-audio;2;36178;0.0-2.0;1;[0,1];NULL;NULL;5b9a048d699f51000119ccd8;preference
98;30105;"["patterns/Rhythm-68.mp3","patterns/Rhythm-3.mp3"]";NULL;forced-choice-audio;3;66789;0.0-3.0;0;[0,1];NULL;NULL;5b9a048d699f51000119ccd8;preference
99;24946.7;"["patterns/Rhythm-14.mp3","patterns/Rhythm-48.mp3"]";NULL;forced-choice-audio;4;92242;0.0-4.0;0;[0,1];NULL;NULL;5b9a048d699f51000119ccd8;preference
100;25044.8;"["patterns/Rhythm-11.mp3","patterns/Rhythm-22.mp3"]";NULL;forced-choice-audio;5;117788;0.0-5.0;0;[0,1];NULL;NULL;5b9a048d699f51000119ccd8;preference
101;23242;"["patterns/Rhythm-83.mp3","patterns/Rhythm-20.mp3"]";NULL;forced-choice-audio;6;141536;0.0-6.0;1;[0,1];NULL;NULL;5b9a048d699f51000119ccd8;preference
102;23887;"["patterns/Rhythm-37.mp3","patterns/Rhythm-49.mp3"]";NULL;forced-choice-audio;7;165925;0.0-7.0;1;[0,1];NULL;NULL;5b9a048d699f51000119ccd8;preference
103;1803.94;"<p>Now you will answer a few questions.</p><p>Press any key to continue.</p>";32;html-keyboard-response;8;168230;0.0-8.0;NULL;NULL;NULL;NULL;5b9a048d699f51000119ccd8;preference
104;18973.3;NULL;NULL;survey-text;9;187710;0.0-9.0;NULL;NULL;"{"HowManyHours":"4","HowManyYears":"2"}";NULL;5b9a048d699f51000119ccd8;preference
105;10554.3;NULL;NULL;survey-multi-select;10;198772;0.0-10.0;NULL;NULL;"{"Q0":["I took/take general music in primary school.","I took/take private music lessons."]}";[0];5b9a048d699f51000119ccd8;preference
106;5833.56;"<div style='max-width:700px;'><p>For this experiment, you will listen to 5 pairs of rhythms and choose which rhythm in each pair sounds more unusual.</p><p>You will need to be able to hear audio in order to complete the experiment.</p><p>Press any key to ";68;html-keyboard-response;0;5835;0.0-0.0;NULL;NULL;NULL;NULL;5ba84ef846de410001ecf704;typicality
107;4282.85;base64.wav;87;audio-keyboard-response;1;10620;0.0-1.0-0.0;NULL;NULL;NULL;NULL;5ba84ef846de410001ecf704;typicality
108;28480.3;"["patterns/Rhythm-14.mp3","patterns/Rhythm-77.mp3"]";NULL;forced-choice-audio;2;39102;0.0-2.0;0;[0,1];NULL;NULL;5ba84ef846de410001ecf704;typicality
109;24142.1;"["patterns/Rhythm-71.mp3","patterns/Rhythm-52.mp3"]";NULL;forced-choice-audio;3;63747;0.0-3.0;0;[0,1];NULL;NULL;5ba84ef846de410001ecf704;typicality
110;22693.2;"["patterns/Rhythm-4.mp3","patterns/Rhythm-27.mp3"]";NULL;forced-choice-audio;4;86942;0.0-4.0;0;[0,1];NULL;NULL;5ba84ef846de410001ecf704;typicality
111;23359;"["patterns/Rhythm-90.mp3","patterns/Rhythm-77.mp3"]";NULL;forced-choice-audio;5;110802;0.0-5.0;0;[0,1];NULL;NULL;5ba84ef846de410001ecf704;typicality
112;24059;"["patterns/Rhythm-12.mp3","patterns/Rhythm-17.mp3"]";NULL;forced-choice-audio;6;135362;0.0-6.0;1;[0,1];NULL;NULL;5ba84ef846de410001ecf704;typicality
113;35105.2;"["patterns/Rhythm-14.mp3","patterns/Rhythm-30.mp3"]";NULL;forced-choice-audio;7;170969;0.0-7.0;1;[0,1];NULL;NULL;5ba84ef846de410001ecf704;typicality
114;1532.01;"<p>Now you will answer a few questions.</p><p>Press any key to continue.</p>";87;html-keyboard-response;8;173003;0.0-8.0;NULL;NULL;NULL;NULL;5ba84ef846de410001ecf704;typicality
115;15978.1;NULL;NULL;survey-text;9;189485;0.0-9.0;NULL;NULL;"{"HowManyHours":"8","HowManyYears":"4"}";NULL;5ba84ef846de410001ecf704;typicality
116;10817.9;NULL;NULL;survey-multi-select;10;200806;0.0-10.0;NULL;NULL;"{"Q0":["I took/take general music in primary school.","I took/take instrumental/choir classes in high school."]}";[0];5ba84ef846de410001ecf704;typicality
117;8782.86;"<div style='max-width:700px;'><p>For this experiment, you will listen to 5 pairs of rhythms and choose which rhythm in each pair sounds more unusual.</p><p>You will need to be able to hear audio in order to complete the experiment.</p><p>Press any key to ";32;html-keyboard-response;0;8786;0.0-0.0;NULL;NULL;NULL;NULL;5d5f4dd69a68fc0019949f43;typicality
118;4884.77;base64.wav;87;audio-keyboard-response;1;14175;0.0-1.0-0.0;NULL;NULL;NULL;NULL;5d5f4dd69a68fc0019949f43;typicality
119;25419.4;"["patterns/Rhythm-72.mp3","patterns/Rhythm-46.mp3"]";NULL;forced-choice-audio;2;39598;0.0-2.0;0;[0,1];NULL;NULL;5d5f4dd69a68fc0019949f43;typicality
120;33488.5;"["patterns/Rhythm-52.mp3","patterns/Rhythm-57.mp3"]";NULL;forced-choice-audio;3;73592;0.0-3.0;1;[0,1,0];NULL;NULL;5d5f4dd69a68fc0019949f43;typicality
121;23114.4;"["patterns/Rhythm-76.mp3","patterns/Rhythm-45.mp3"]";NULL;forced-choice-audio;4;97210;0.0-4.0;0;[0,1];NULL;NULL;5d5f4dd69a68fc0019949f43;typicality
122;22745.4;"["patterns/Rhythm-67.mp3","patterns/Rhythm-46.mp3"]";NULL;forced-choice-audio;5;120458;0.0-5.0;0;[0,1];NULL;NULL;5d5f4dd69a68fc0019949f43;typicality
123;33733.6;"["patterns/Rhythm-19.mp3","patterns/Rhythm-85.mp3"]";NULL;forced-choice-audio;6;154696;0.0-6.0;1;[0,1,0];NULL;NULL;5d5f4dd69a68fc0019949f43;typicality
124;22602.9;"["patterns/Rhythm-72.mp3","patterns/Rhythm-66.mp3"]";NULL;forced-choice-audio;7;177804;0.0-7.0;0;[0,1];NULL;NULL;5d5f4dd69a68fc0019949f43;typicality
125;1470.87;"<p>Now you will answer a few questions.</p><p>Press any key to continue.</p>";32;html-keyboard-response;8;179779;0.0-8.0;NULL;NULL;NULL;NULL;5d5f4dd69a68fc0019949f43;typicality
126;22004.1;NULL;NULL;survey-text;9;202291;0.0-9.0;NULL;NULL;"{"HowManyHours":"3","HowManyYears":"10"}";NULL;5d5f4dd69a68fc0019949f43;typicality
127;14145.5;NULL;NULL;survey-multi-select;10;216945;0.0-10.0;NULL;NULL;"{"Q0":["I took/take general music in primary school.","I took/take private music lessons."]}";[0];5d5f4dd69a68fc0019949f43;typicality
128;6845.21;"<div style='max-width:700px;'><p>For this experiment, you will listen to 5 pairs of rhythms and choose which rhythm in each pair sounds more unusual.</p><p>You will need to be able to hear audio in order to complete the experiment.</p><p>Press any key to ";32;html-keyboard-response;0;6849;0.0-0.0;NULL;NULL;NULL;NULL;5d5d763196649c0001533dae;typicality
129;NULL;base64.wav;NULL;audio-keyboard-response;1;12866;0.0-1.0-0.0;NULL;NULL;NULL;NULL;5d5d763196649c0001533dae;typicality
130;1174.11;base64.wav;87;audio-keyboard-response;2;14045;0.0-1.1-0.1;NULL;NULL;NULL;NULL;5d5d763196649c0001533dae;typicality
131;33880.3;"["patterns/Rhythm-85.mp3","patterns/Rhythm-89.mp3"]";NULL;forced-choice-audio;3;47929;0.0-2.0;1;[0,1];NULL;NULL;5d5d763196649c0001533dae;typicality
132;24977.8;"["patterns/Rhythm-8.mp3","patterns/Rhythm-86.mp3"]";NULL;forced-choice-audio;4;73412;0.0-3.0;0;[0,1];NULL;NULL;5d5d763196649c0001533dae;typicality
133;23514.2;"["patterns/Rhythm-94.mp3","patterns/Rhythm-90.mp3"]";NULL;forced-choice-audio;5;97429;0.0-4.0;0;[0,1];NULL;NULL;5d5d763196649c0001533dae;typicality
134;24936.8;"["patterns/Rhythm-68.mp3","patterns/Rhythm-89.mp3"]";NULL;forced-choice-audio;6;122904;0.0-5.0;1;[0,1];NULL;NULL;5d5d763196649c0001533dae;typicality
135;26079.6;"["patterns/Rhythm-21.mp3","patterns/Rhythm-12.mp3"]";NULL;forced-choice-audio;7;149489;0.0-6.0;1;[0,1];NULL;NULL;5d5d763196649c0001533dae;typicality
136;23992.2;"["patterns/Rhythm-85.mp3","patterns/Rhythm-67.mp3"]";NULL;forced-choice-audio;8;173999;0.0-7.0;1;[0,1];NULL;NULL;5d5d763196649c0001533dae;typicality
137;2674.96;"<p>Now you will answer a few questions.</p><p>Press any key to continue.</p>";32;html-keyboard-response;9;177176;0.0-8.0;NULL;NULL;NULL;NULL;5d5d763196649c0001533dae;typicality
138;52346.2;NULL;NULL;survey-text;10;230040;0.0-9.0;NULL;NULL;"{"HowManyHours":"10","HowManyYears":"3"}";NULL;5d5d763196649c0001533dae;typicality
139;8144.83;NULL;NULL;survey-multi-select;11;238693;0.0-10.0;NULL;NULL;"{"Q0":["I took/take general music in primary school.","I took/take music classes in college."]}";[0];5d5d763196649c0001533dae;typicality
140;13556.8;"<div style='max-width:700px;'><p>For this experiment, you will listen to 5 pairs of rhythms and choose which rhythm in each pair sounds more unusual.</p><p>You will need to be able to hear audio in order to complete the experiment.</p><p>Press any key to ";32;html-keyboard-response;0;13561;0.0-0.0;NULL;NULL;NULL;NULL;57a3ad5670c76a00012467e7;typicality
141;NULL;base64.wav;NULL;audio-keyboard-response;1;19566;0.0-1.0-0.0;NULL;NULL;NULL;NULL;57a3ad5670c76a00012467e7;typicality
142;150.525;base64.wav;87;audio-keyboard-response;2;19721;0.0-1.1-0.1;NULL;NULL;NULL;NULL;57a3ad5670c76a00012467e7;typicality
143;40291.9;"["patterns/Rhythm-48.mp3","patterns/Rhythm-39.mp3"]";NULL;forced-choice-audio;3;60018;0.0-2.0;1;[0,1,0];NULL;NULL;57a3ad5670c76a00012467e7;typicality
144;74652.2;"["patterns/Rhythm-64.mp3","patterns/Rhythm-65.mp3"]";NULL;forced-choice-audio;4;135173;0.0-3.0;0;[0,1,1];NULL;NULL;57a3ad5670c76a00012467e7;typicality
145;28242.5;"["patterns/Rhythm-28.mp3","patterns/Rhythm-37.mp3"]";NULL;forced-choice-audio;5;163921;0.0-4.0;1;[0,1];NULL;NULL;57a3ad5670c76a00012467e7;typicality
146;126877;"["patterns/Rhythm-9.mp3","patterns/Rhythm-39.mp3"]";NULL;forced-choice-audio;6;291301;0.0-5.0;1;[0,1,0,1];NULL;NULL;57a3ad5670c76a00012467e7;typicality
147;25668.4;"["patterns/Rhythm-53.mp3","patterns/Rhythm-66.mp3"]";NULL;forced-choice-audio;7;317472;0.0-6.0;0;[0,1];NULL;NULL;57a3ad5670c76a00012467e7;typicality
148;57227.2;"["patterns/Rhythm-48.mp3","patterns/Rhythm-85.mp3"]";NULL;forced-choice-audio;8;375201;0.0-7.0;0;[0,1];NULL;NULL;57a3ad5670c76a00012467e7;typicality
149;1664.98;"<p>Now you will answer a few questions.</p><p>Press any key to continue.</p>";32;html-keyboard-response;9;377382;0.0-8.0;NULL;NULL;NULL;NULL;57a3ad5670c76a00012467e7;typicality
150;23096.4;NULL;NULL;survey-text;10;401003;0.0-9.0;NULL;NULL;"{"HowManyHours":"7 hours","HowManyYears":"6 years"}";NULL;57a3ad5670c76a00012467e7;typicality
151;16306.5;NULL;NULL;survey-multi-select;11;417819;0.0-10.0;NULL;NULL;"{"Q0":["I took/take general music in primary school.","I took/take instrumental/choir classes in high school."]}";[0];57a3ad5670c76a00012467e7;typicality
152;8194.14;"<div style='max-width:700px;'><p>For this experiment, you will listen to 5 pairs of rhythms and choose which rhythm in each pair you like more.</p><p>You will need to be able to hear audio in order to complete the experiment.</p><p>Press any key to contin";32;html-keyboard-response;0;8196;0.0-0.0;NULL;NULL;NULL;NULL;5a245b4b336eb200013d463a;preference
153;4767.58;base64.wav;87;audio-keyboard-response;1;13467;0.0-1.0-0.0;NULL;NULL;NULL;NULL;5a245b4b336eb200013d463a;preference
154;29456.6;"["patterns/Rhythm-68.mp3","patterns/Rhythm-84.mp3"]";NULL;forced-choice-audio;2;42929;0.0-2.0;0;[0,1];NULL;NULL;5a245b4b336eb200013d463a;preference
155;25896.3;"["patterns/Rhythm-42.mp3","patterns/Rhythm-18.mp3"]";NULL;forced-choice-audio;3;69327;0.0-3.0;0;[0,1];NULL;NULL;5a245b4b336eb200013d463a;preference
156;24408.8;"["patterns/Rhythm-72.mp3","patterns/Rhythm-75.mp3"]";NULL;forced-choice-audio;4;94239;0.0-4.0;0;[0,1];NULL;NULL;5a245b4b336eb200013d463a;preference
157;25857;"["patterns/Rhythm-99.mp3","patterns/Rhythm-84.mp3"]";NULL;forced-choice-audio;5;120599;0.0-5.0;1;[0,1];NULL;NULL;5a245b4b336eb200013d463a;preference
158;22273.2;"["patterns/Rhythm-48.mp3","patterns/Rhythm-29.mp3"]";NULL;forced-choice-audio;6;143375;0.0-6.0;1;[0,1];NULL;NULL;5a245b4b336eb200013d463a;preference
159;22713.4;"["patterns/Rhythm-68.mp3","patterns/Rhythm-62.mp3"]";NULL;forced-choice-audio;7;166591;0.0-7.0;1;[0,1];NULL;NULL;5a245b4b336eb200013d463a;preference
160;2862;"<p>Now you will answer a few questions.</p><p>Press any key to continue.</p>";77;html-keyboard-response;8;169954;0.0-8.0;NULL;NULL;NULL;NULL;5a245b4b336eb200013d463a;preference
161;23230.3;NULL;NULL;survey-text;9;193691;0.0-9.0;NULL;NULL;"{"HowManyHours":"5 hours","HowManyYears":"0"}";NULL;5a245b4b336eb200013d463a;preference
162;37991.4;NULL;NULL;survey-multi-select;10;232192;0.0-10.0;NULL;NULL;"{"Q0":["I took/take general music in primary school."]}";[0];5a245b4b336eb200013d463a;preference
163;32449.2;"<div style='max-width:700px;'><p>For this experiment, you will listen to 5 pairs of rhythms and choose which rhythm in each pair sounds more unusual.</p><p>You will need to be able to hear audio in order to complete the experiment.</p><p>Press any key to ";32;html-keyboard-response;0;32451;0.0-0.0;NULL;NULL;NULL;NULL;5d60343d2ef14c0016ae9763;typicality
164;5437.92;base64.wav;87;audio-keyboard-response;1;38392;0.0-1.0-0.0;NULL;NULL;NULL;NULL;5d60343d2ef14c0016ae9763;typicality
165;32444.8;"["patterns/Rhythm-97.mp3","patterns/Rhythm-66.mp3"]";NULL;forced-choice-audio;2;70839;0.0-2.0;1;[0,1];NULL;NULL;5d60343d2ef14c0016ae9763;typicality
166;25693.6;"["patterns/Rhythm-43.mp3","patterns/Rhythm-83.mp3"]";NULL;forced-choice-audio;3;97037;0.0-3.0;1;[0,1];NULL;NULL;5d60343d2ef14c0016ae9763;typicality
167;29323.1;"["patterns/Rhythm-72.mp3","patterns/Rhythm-27.mp3"]";NULL;forced-choice-audio;4;126862;0.0-4.0;0;[0,1,0];NULL;NULL;5d60343d2ef14c0016ae9763;typicality
168;22454.6;"["patterns/Rhythm-74.mp3","patterns/Rhythm-66.mp3"]";NULL;forced-choice-audio;5;149819;0.0-5.0;1;[0,1];NULL;NULL;5d60343d2ef14c0016ae9763;typicality
169;34449.7;"["patterns/Rhythm-26.mp3","patterns/Rhythm-59.mp3"]";NULL;forced-choice-audio;6;184774;0.0-6.0;0;[0,1,0];NULL;NULL;5d60343d2ef14c0016ae9763;typicality
170;42335.1;"["patterns/Rhythm-97.mp3","patterns/Rhythm-63.mp3"]";NULL;forced-choice-audio;7;227610;0.0-7.0;1;[0,1,0,1];NULL;NULL;5d60343d2ef14c0016ae9763;typicality
171;2817.93;"<p>Now you will answer a few questions.</p><p>Press any key to continue.</p>";32;html-keyboard-response;8;230934;0.0-8.0;NULL;NULL;NULL;NULL;5d60343d2ef14c0016ae9763;typicality
172;17969.6;NULL;NULL;survey-text;9;249414;0.0-9.0;NULL;NULL;"{"HowManyHours":"4","HowManyYears":""}";NULL;5d60343d2ef14c0016ae9763;typicality
173;25392.8;NULL;NULL;survey-multi-select;10;275314;0.0-10.0;NULL;NULL;"{"Q0":["I took/take general music in primary school."]}";[0];5d60343d2ef14c0016ae9763;typicality
174;7280;"<div style='max-width:700px;'><p>For this experiment, you will listen to 5 pairs of rhythms and choose which rhythm in each pair you like more.</p><p>You will need to be able to hear audio in order to complete the experiment.</p><p>Press any key to contin";32;html-keyboard-response;0;7287;0.0-0.0;NULL;NULL;NULL;NULL;5c5877ce8fba0a000189f39d;preference
175;NULL;base64.wav;NULL;audio-keyboard-response;1;13363;0.0-1.0-0.0;NULL;NULL;NULL;NULL;5c5877ce8fba0a000189f39d;preference
176;NULL;base64.wav;NULL;audio-keyboard-response;2;18873;0.0-1.1-0.1;NULL;NULL;NULL;NULL;5c5877ce8fba0a000189f39d;preference
177;1068;base64.wav;87;audio-keyboard-response;3;19943;0.0-1.2-0.2;NULL;NULL;NULL;NULL;5c5877ce8fba0a000189f39d;preference
178;29424;"["patterns/Rhythm-60.mp3","patterns/Rhythm-80.mp3"]";NULL;forced-choice-audio;4;49370;0.0-2.0;1;[0,1];NULL;NULL;5c5877ce8fba0a000189f39d;preference
179;25829;"["patterns/Rhythm-23.mp3","patterns/Rhythm-70.mp3"]";NULL;forced-choice-audio;5;75717;0.0-3.0;0;[0,1];NULL;NULL;5c5877ce8fba0a000189f39d;preference
180;25420;"["patterns/Rhythm-41.mp3","patterns/Rhythm-97.mp3"]";NULL;forced-choice-audio;6;101657;0.0-4.0;1;[0,1];NULL;NULL;5c5877ce8fba0a000189f39d;preference
181;24216;"["patterns/Rhythm-42.mp3","patterns/Rhythm-80.mp3"]";NULL;forced-choice-audio;7;126388;0.0-5.0;0;[0,1];NULL;NULL;5c5877ce8fba0a000189f39d;preference
182;24077;"["patterns/Rhythm-53.mp3","patterns/Rhythm-69.mp3"]";NULL;forced-choice-audio;8;150972;0.0-6.0;1;[0,1];NULL;NULL;5c5877ce8fba0a000189f39d;preference
183;24665;"["patterns/Rhythm-60.mp3","patterns/Rhythm-83.mp3"]";NULL;forced-choice-audio;9;176142;0.0-7.0;0;[0,1];NULL;NULL;5c5877ce8fba0a000189f39d;preference
184;1675;"<p>Now you will answer a few questions.</p><p>Press any key to continue.</p>";32;html-keyboard-response;10;178322;0.0-8.0;NULL;NULL;NULL;NULL;5c5877ce8fba0a000189f39d;preference
185;25860;NULL;NULL;survey-text;11;204877;0.0-9.0;NULL;NULL;"{"HowManyHours":"4","HowManyYears":"0"}";NULL;5c5877ce8fba0a000189f39d;preference
186;14822;NULL;NULL;survey-multi-select;12;220226;0.0-10.0;NULL;NULL;"{"Q0":[]}";[0];5c5877ce8fba0a000189f39d;preference
187;13085.3;"<div style='max-width:700px;'><p>For this experiment, you will listen to 5 pairs of rhythms and choose which rhythm in each pair sounds more unusual.</p><p>You will need to be able to hear audio in order to complete the experiment.</p><p>Press any key to ";32;html-keyboard-response;0;13088;0.0-0.0;NULL;NULL;NULL;NULL;5c687c77a3ac650001d1d5b5;typicality
188;NULL;base64.wav;NULL;audio-keyboard-response;1;19093;0.0-1.0-0.0;NULL;NULL;NULL;NULL;5c687c77a3ac650001d1d5b5;typicality
189;NULL;base64.wav;NULL;audio-keyboard-response;2;24594;0.0-1.1-0.1;NULL;NULL;NULL;NULL;5c687c77a3ac650001d1d5b5;typicality
190;NULL;base64.wav;NULL;audio-keyboard-response;3;30096;0.0-1.2-0.2;NULL;NULL;NULL;NULL;5c687c77a3ac650001d1d5b5;typicality
191;NULL;base64.wav;NULL;audio-keyboard-response;4;35598;0.0-1.3-0.3;NULL;NULL;NULL;NULL;5c687c77a3ac650001d1d5b5;typicality
192;NULL;base64.wav;NULL;audio-keyboard-response;5;41100;0.0-1.4-0.4;NULL;NULL;NULL;NULL;5c687c77a3ac650001d1d5b5;typicality
193;NULL;base64.wav;NULL;audio-keyboard-response;6;46602;0.0-1.5-0.5;NULL;NULL;NULL;NULL;5c687c77a3ac650001d1d5b5;typicality
194;NULL;base64.wav;NULL;audio-keyboard-response;7;52103;0.0-1.6-0.6;NULL;NULL;NULL;NULL;5c687c77a3ac650001d1d5b5;typicality
195;NULL;base64.wav;NULL;audio-keyboard-response;8;57604;0.0-1.7-0.7;NULL;NULL;NULL;NULL;5c687c77a3ac650001d1d5b5;typicality
196;NULL;base64.wav;NULL;audio-keyboard-response;9;63106;0.0-1.8-0.8;NULL;NULL;NULL;NULL;5c687c77a3ac650001d1d5b5;typicality
197;NULL;base64.wav;NULL;audio-keyboard-response;10;68608;0.0-1.9-0.9;NULL;NULL;NULL;NULL;5c687c77a3ac650001d1d5b5;typicality
198;NULL;base64.wav;NULL;audio-keyboard-response;11;74110;0.0-1.10-0.10;NULL;NULL;NULL;NULL;5c687c77a3ac650001d1d5b5;typicality
199;NULL;base64.wav;NULL;audio-keyboard-response;12;79612;0.0-1.11-0.11;NULL;NULL;NULL;NULL;5c687c77a3ac650001d1d5b5;typicality
200;NULL;base64.wav;NULL;audio-keyboard-response;13;85114;0.0-1.12-0.12;NULL;NULL;NULL;NULL;5c687c77a3ac650001d1d5b5;typicality
201;1048.56;base64.wav;87;audio-keyboard-response;14;86164;0.0-1.13-0.13;NULL;NULL;NULL;NULL;5c687c77a3ac650001d1d5b5;typicality
202;39217.6;"["patterns/Rhythm-8.mp3","patterns/Rhythm-79.mp3"]";NULL;forced-choice-audio;15;125384;0.0-2.0;0;[1,0];NULL;NULL;5c687c77a3ac650001d1d5b5;typicality
203;33472;"["patterns/Rhythm-37.mp3","patterns/Rhythm-16.mp3"]";NULL;forced-choice-audio;16;159358;0.0-3.0;1;[0,1];NULL;NULL;5c687c77a3ac650001d1d5b5;typicality
204;33249.8;"["patterns/Rhythm-23.mp3","patterns/Rhythm-96.mp3"]";NULL;forced-choice-audio;17;193110;0.0-4.0;1;[0,1];NULL;NULL;5c687c77a3ac650001d1d5b5;typicality
205;28848.3;"["patterns/Rhythm-3.mp3","patterns/Rhythm-79.mp3"]";NULL;forced-choice-audio;18;222461;0.0-5.0;1;[0,1];NULL;NULL;5c687c77a3ac650001d1d5b5;typicality
206;28769.1;"["patterns/Rhythm-0.mp3","patterns/Rhythm-67.mp3"]";NULL;forced-choice-audio;19;251733;0.0-6.0;1;[0,1];NULL;NULL;5c687c77a3ac650001d1d5b5;typicality
207;74336;"["patterns/Rhythm-8.mp3","patterns/Rhythm-69.mp3"]";NULL;forced-choice-audio;20;326571;0.0-7.0;1;[0,1];NULL;NULL;5c687c77a3ac650001d1d5b5;typicality
208;3231.97;"<p>Now you will answer a few questions.</p><p>Press any key to continue.</p>";68;html-keyboard-response;21;330304;0.0-8.0;NULL;NULL;NULL;NULL;5c687c77a3ac650001d1d5b5;typicality
209;17010.2;NULL;NULL;survey-text;22;347820;0.0-9.0;NULL;NULL;"{"HowManyHours":"5","HowManyYears":"2"}";NULL;5c687c77a3ac650001d1d5b5;typicality
210;5078.31;NULL;NULL;survey-multi-select;23;353404;0.0-10.0;NULL;NULL;"{"Q0":["I took/take general music in primary school.","I took/take private music lessons."]}";[0];5c687c77a3ac650001d1d5b5;typicality
211;7422;"<div style='max-width:700px;'><p>For this experiment, you will listen to 5 pairs of rhythms and choose which rhythm in each pair sounds more unusual.</p><p>You will need to be able to hear audio in order to complete the experiment.</p><p>Press any key to ";32;html-keyboard-response;0;7434;0.0-0.0;NULL;NULL;NULL;NULL;5bbd13d55ec0a20001871443;typicality
212;4801;base64.wav;87;audio-keyboard-response;1;12742;0.0-1.0-0.0;NULL;NULL;NULL;NULL;5bbd13d55ec0a20001871443;typicality
213;25121;"["patterns/Rhythm-77.mp3","patterns/Rhythm-18.mp3"]";NULL;forced-choice-audio;2;37871;0.0-2.0;0;[0,1];NULL;NULL;5bbd13d55ec0a20001871443;typicality
214;35923;"["patterns/Rhythm-75.mp3","patterns/Rhythm-30.mp3"]";NULL;forced-choice-audio;3;74300;0.0-3.0;0;[0,1,1];NULL;NULL;5bbd13d55ec0a20001871443;typicality
215;38669;"["patterns/Rhythm-5.mp3","patterns/Rhythm-73.mp3"]";NULL;forced-choice-audio;4;113475;0.0-4.0;1;[0,1];NULL;NULL;5bbd13d55ec0a20001871443;typicality
216;26798;"["patterns/Rhythm-83.mp3","patterns/Rhythm-18.mp3"]";NULL;forced-choice-audio;5;140778;0.0-5.0;0;[0,1];NULL;NULL;5bbd13d55ec0a20001871443;typicality
217;23862;"["patterns/Rhythm-86.mp3","patterns/Rhythm-48.mp3"]";NULL;forced-choice-audio;6;165148;0.0-6.0;0;[0,1];NULL;NULL;5bbd13d55ec0a20001871443;typicality
218;24920;"["patterns/Rhythm-77.mp3","patterns/Rhythm-20.mp3"]";NULL;forced-choice-audio;7;190574;0.0-7.0;1;[0,1];NULL;NULL;5bbd13d55ec0a20001871443;typicality
219;2020;"<p>Now you will answer a few questions.</p><p>Press any key to continue.</p>";32;html-keyboard-response;8;193097;0.0-8.0;NULL;NULL;NULL;NULL;5bbd13d55ec0a20001871443;typicality
220;14366;NULL;NULL;survey-text;9;207993;0.0-9.0;NULL;NULL;"{"HowManyHours":"3","HowManyYears":"2"}";NULL;5bbd13d55ec0a20001871443;typicality
221;13860;NULL;NULL;survey-multi-select;10;222377;0.0-10.0;NULL;NULL;"{"Q0":["I took/take general music in primary school.","I took/take private music lessons."]}";[0];5bbd13d55ec0a20001871443;typicality
222;107635;"<div style='max-width:700px;'><p>For this experiment, you will listen to 5 pairs of rhythms and choose which rhythm in each pair you like more.</p><p>You will need to be able to hear audio in order to complete the experiment.</p><p>Press any key to contin";175;html-keyboard-response;0;107645;0.0-0.0;NULL;NULL;NULL;NULL;5bafe806c383030001c965df;preference
223;NULL;base64.wav;NULL;audio-keyboard-response;1;113686;0.0-1.0-0.0;NULL;NULL;NULL;NULL;5bafe806c383030001c965df;preference
224;5504.46;base64.wav;87;audio-keyboard-response;2;119197;0.0-1.1-0.1;NULL;NULL;NULL;NULL;5bafe806c383030001c965df;preference
225;25190.4;"["patterns/Rhythm-24.mp3","patterns/Rhythm-22.mp3"]";NULL;forced-choice-audio;3;144395;0.0-2.0;0;[0,1];NULL;NULL;5bafe806c383030001c965df;preference
226;23569.2;"["patterns/Rhythm-30.mp3","patterns/Rhythm-62.mp3"]";NULL;forced-choice-audio;4;168491;0.0-3.0;0;[0,1];NULL;NULL;5bafe806c383030001c965df;preference
227;23495.1;"["patterns/Rhythm-67.mp3","patterns/Rhythm-66.mp3"]";NULL;forced-choice-audio;5;192507;0.0-4.0;0;[0,1];NULL;NULL;5bafe806c383030001c965df;preference
228;22832.3;"["patterns/Rhythm-64.mp3","patterns/Rhythm-22.mp3"]";NULL;forced-choice-audio;6;215846;0.0-5.0;1;[0,1];NULL;NULL;5bafe806c383030001c965df;preference
229;24134.1;"["patterns/Rhythm-94.mp3","patterns/Rhythm-80.mp3"]";NULL;forced-choice-audio;7;240488;0.0-6.0;1;[0,1];NULL;NULL;5bafe806c383030001c965df;preference
230;24222.8;"["patterns/Rhythm-24.mp3","patterns/Rhythm-7.mp3"]";NULL;forced-choice-audio;8;265218;0.0-7.0;0;[0,1];NULL;NULL;5bafe806c383030001c965df;preference
231;1965.61;"<p>Now you will answer a few questions.</p><p>Press any key to continue.</p>";32;html-keyboard-response;9;267700;0.0-8.0;NULL;NULL;NULL;NULL;5bafe806c383030001c965df;preference
232;8162.65;NULL;NULL;survey-text;10;276390;0.0-9.0;NULL;NULL;"{"HowManyHours":"2","HowManyYears":"15"}";NULL;5bafe806c383030001c965df;preference
233;11323.4;NULL;NULL;survey-multi-select;11;288252;0.0-10.0;NULL;NULL;"{"Q0":["I took/take private music lessons."]}";[0];5bafe806c383030001c965df;preference
234;300.96;"<div style='max-width:700px;'><p>For this experiment, you will listen to 5 pairs of rhythms and choose which rhythm in each pair sounds more unusual.</p><p>You will need to be able to hear audio in order to complete the experiment.</p><p>Press any key to ";175;html-keyboard-response;0;309;0.0-0.0;NULL;NULL;NULL;NULL;5cbda9f6290fd50016e5c03f;typicality
235;NULL;base64.wav;NULL;audio-keyboard-response;1;6332;0.0-1.0-0.0;NULL;NULL;NULL;NULL;5cbda9f6290fd50016e5c03f;typicality
236;NULL;base64.wav;NULL;audio-keyboard-response;2;11857;0.0-1.1-0.1;NULL;NULL;NULL;NULL;5cbda9f6290fd50016e5c03f;typicality
237;NULL;base64.wav;NULL;audio-keyboard-response;3;17368;0.0-1.2-0.2;NULL;NULL;NULL;NULL;5cbda9f6290fd50016e5c03f;typicality
238;3582.18;base64.wav;87;audio-keyboard-response;4;20952;0.0-1.3-0.3;NULL;NULL;NULL;NULL;5cbda9f6290fd50016e5c03f;typicality
239;59029;"["patterns/Rhythm-58.mp3","patterns/Rhythm-68.mp3"]";NULL;forced-choice-audio;5;79987;0.0-2.0;1;[0,1,0,1];NULL;NULL;5cbda9f6290fd50016e5c03f;typicality
240;25214.2;"["patterns/Rhythm-90.mp3","patterns/Rhythm-97.mp3"]";NULL;forced-choice-audio;6;105706;0.0-3.0;0;[0,1];NULL;NULL;5cbda9f6290fd50016e5c03f;typicality
241;24815.1;"["patterns/Rhythm-50.mp3","patterns/Rhythm-49.mp3"]";NULL;forced-choice-audio;7;131027;0.0-4.0;1;[0,1];NULL;NULL;5cbda9f6290fd50016e5c03f;typicality
242;23810.2;"["patterns/Rhythm-98.mp3","patterns/Rhythm-68.mp3"]";NULL;forced-choice-audio;8;155342;0.0-5.0;1;[0,1];NULL;NULL;5cbda9f6290fd50016e5c03f;typicality
243;23144.7;"["patterns/Rhythm-13.mp3","patterns/Rhythm-53.mp3"]";NULL;forced-choice-audio;9;178991;0.0-6.0;1;[0,1];NULL;NULL;5cbda9f6290fd50016e5c03f;typicality
244;24255.6;"["patterns/Rhythm-58.mp3","patterns/Rhythm-56.mp3"]";NULL;forced-choice-audio;10;203753;0.0-7.0;1;[0,1];NULL;NULL;5cbda9f6290fd50016e5c03f;typicality
245;2191.74;"<p>Now you will answer a few questions.</p><p>Press any key to continue.</p>";32;html-keyboard-response;11;206447;0.0-8.0;NULL;NULL;NULL;NULL;5cbda9f6290fd50016e5c03f;typicality
246;23226.4;NULL;NULL;survey-text;12;230188;0.0-9.0;NULL;NULL;"{"HowManyHours":"6","HowManyYears":"3"}";NULL;5cbda9f6290fd50016e5c03f;typicality
247;13462.8;NULL;NULL;survey-multi-select;13;244179;0.0-10.0;NULL;NULL;"{"Q0":["I took/take general music in primary school.","I took/take private music lessons.","I took/take music classes in college."]}";[0];5cbda9f6290fd50016e5c03f;typicality
248;7671;"<div style='max-width:700px;'><p>For this experiment, you will listen to 5 pairs of rhythms and choose which rhythm in each pair you like more.</p><p>You will need to be able to hear audio in order to complete the experiment.</p><p>Press any key to contin";75;html-keyboard-response;0;7675;0.0-0.0;NULL;NULL;NULL;NULL;587305bbdb3e720001e231cf;preference
249;NULL;base64.wav;NULL;audio-keyboard-response;1;13679;0.0-1.0-0.0;NULL;NULL;NULL;NULL;587305bbdb3e720001e231cf;preference
250;383;base64.wav;87;audio-keyboard-response;2;14063;0.0-1.1-0.1;NULL;NULL;NULL;NULL;587305bbdb3e720001e231cf;preference
251;26986;"["patterns/Rhythm-62.mp3","patterns/Rhythm-47.mp3"]";NULL;forced-choice-audio;3;41051;0.0-2.0;0;[0,1];NULL;NULL;587305bbdb3e720001e231cf;preference
252;27858;"["patterns/Rhythm-76.mp3","patterns/Rhythm-84.mp3"]";NULL;forced-choice-audio;4;69412;0.0-3.0;0;[0,1,0];NULL;NULL;587305bbdb3e720001e231cf;preference
253;23377;"["patterns/Rhythm-36.mp3","patterns/Rhythm-95.mp3"]";NULL;forced-choice-audio;5;93293;0.0-4.0;1;[1,0];NULL;NULL;587305bbdb3e720001e231cf;preference
254;26895;"["patterns/Rhythm-98.mp3","patterns/Rhythm-47.mp3"]";NULL;forced-choice-audio;6;120692;0.0-5.0;0;[0,1];NULL;NULL;587305bbdb3e720001e231cf;preference
255;23746;"["patterns/Rhythm-18.mp3","patterns/Rhythm-72.mp3"]";NULL;forced-choice-audio;7;144942;0.0-6.0;0;[1,0];NULL;NULL;587305bbdb3e720001e231cf;preference
256;23120;"["patterns/Rhythm-62.mp3","patterns/Rhythm-6.mp3"]";NULL;forced-choice-audio;8;168565;0.0-7.0;1;[1,0];NULL;NULL;587305bbdb3e720001e231cf;preference
257;1562;"<p>Now you will answer a few questions.</p><p>Press any key to continue.</p>";75;html-keyboard-response;9;170631;0.0-8.0;NULL;NULL;NULL;NULL;587305bbdb3e720001e231cf;preference
258;12052;NULL;NULL;survey-text;10;183186;0.0-9.0;NULL;NULL;"{"HowManyHours":"At least six.","HowManyYears":"Zero."}";NULL;587305bbdb3e720001e231cf;preference
259;9721;NULL;NULL;survey-multi-select;11;193412;0.0-10.0;NULL;NULL;"{"Q0":[]}";[0];587305bbdb3e720001e231cf;preference
260;10297.6;"<div style='max-width:700px;'><p>For this experiment, you will listen to 5 pairs of rhythms and choose which rhythm in each pair sounds more unusual.</p><p>You will need to be able to hear audio in order to complete the experiment.</p><p>Press any key to ";13;html-keyboard-response;0;10310;0.0-0.0;NULL;NULL;NULL;NULL;5d598973f693040001b777ec;typicality
261;NULL;base64.wav;NULL;audio-keyboard-response;1;16333;0.0-1.0-0.0;NULL;NULL;NULL;NULL;5d598973f693040001b777ec;typicality
262;NULL;base64.wav;NULL;audio-keyboard-response;2;21837;0.0-1.1-0.1;NULL;NULL;NULL;NULL;5d598973f693040001b777ec;typicality
263;NULL;base64.wav;NULL;audio-keyboard-response;3;27354;0.0-1.2-0.2;NULL;NULL;NULL;NULL;5d598973f693040001b777ec;typicality
264;4671.79;base64.wav;87;audio-keyboard-response;4;32030;0.0-1.3-0.3;NULL;NULL;NULL;NULL;5d598973f693040001b777ec;typicality
265;34960.7;"["patterns/Rhythm-79.mp3","patterns/Rhythm-22.mp3"]";NULL;forced-choice-audio;5;66997;0.0-2.0;0;[0,1];NULL;NULL;5d598973f693040001b777ec;typicality
266;64716.6;"["patterns/Rhythm-39.mp3","patterns/Rhythm-6.mp3"]";NULL;forced-choice-audio;6;132211;0.0-3.0;0;[0,1];NULL;NULL;5d598973f693040001b777ec;typicality
267;28525;"["patterns/Rhythm-86.mp3","patterns/Rhythm-96.mp3"]";NULL;forced-choice-audio;7;161240;0.0-4.0;1;[0,1];NULL;NULL;5d598973f693040001b777ec;typicality
268;27515.7;"["patterns/Rhythm-3.mp3","patterns/Rhythm-22.mp3"]";NULL;forced-choice-audio;8;189268;0.0-5.0;0;[0,1];NULL;NULL;5d598973f693040001b777ec;typicality
269;27602.7;"["patterns/Rhythm-38.mp3","patterns/Rhythm-71.mp3"]";NULL;forced-choice-audio;9;217376;0.0-6.0;1;[0,1];NULL;NULL;5d598973f693040001b777ec;typicality
270;25658.1;"["patterns/Rhythm-79.mp3","patterns/Rhythm-85.mp3"]";NULL;forced-choice-audio;10;243529;0.0-7.0;0;[0,1];NULL;NULL;5d598973f693040001b777ec;typicality
271;3089.12;"<p>Now you will answer a few questions.</p><p>Press any key to continue.</p>";13;html-keyboard-response;11;247134;0.0-8.0;NULL;NULL;NULL;NULL;5d598973f693040001b777ec;typicality
272;37952.7;NULL;NULL;survey-text;12;285608;0.0-9.0;NULL;NULL;"{"HowManyHours":"20","HowManyYears":"15"}";NULL;5d598973f693040001b777ec;typicality
273;19097.6;NULL;NULL;survey-multi-select;13;305225;0.0-10.0;NULL;NULL;"{"Q0":["I took/take private music lessons.","I took/take music classes in college."]}";[0];5d598973f693040001b777ec;typicality
274;12087.7;"<div style='max-width:700px;'><p>For this experiment, you will listen to 5 pairs of rhythms and choose which rhythm in each pair sounds more unusual.</p><p>You will need to be able to hear audio in order to complete the experiment.</p><p>Press any key to ";175;html-keyboard-response;0;12098;0.0-0.0;NULL;NULL;NULL;NULL;5cc0813b8c322e00159125b3;typicality
275;5155.44;base64.wav;87;audio-keyboard-response;1;17771;0.0-1.0-0.0;NULL;NULL;NULL;NULL;5cc0813b8c322e00159125b3;typicality
276;34067.4;"["patterns/Rhythm-37.mp3","patterns/Rhythm-30.mp3"]";NULL;forced-choice-audio;2;51844;0.0-2.0;0;[0,1];NULL;NULL;5cc0813b8c322e00159125b3;typicality
277;24800;"["patterns/Rhythm-91.mp3","patterns/Rhythm-67.mp3"]";NULL;forced-choice-audio;3;77151;0.0-3.0;1;[0,1];NULL;NULL;5cc0813b8c322e00159125b3;typicality
278;35863.8;"["patterns/Rhythm-39.mp3","patterns/Rhythm-97.mp3"]";NULL;forced-choice-audio;4;113521;0.0-4.0;1;[0,1];NULL;NULL;5cc0813b8c322e00159125b3;typicality
279;24543.1;"["patterns/Rhythm-84.mp3","patterns/Rhythm-30.mp3"]";NULL;forced-choice-audio;5;138567;0.0-5.0;0;[0,1];NULL;NULL;5cc0813b8c322e00159125b3;typicality
280;24004.5;"["patterns/Rhythm-41.mp3","patterns/Rhythm-27.mp3"]";NULL;forced-choice-audio;6;163074;0.0-6.0;0;[1,0];NULL;NULL;5cc0813b8c322e00159125b3;typicality
281;25369;"["patterns/Rhythm-37.mp3","patterns/Rhythm-4.mp3"]";NULL;forced-choice-audio;7;188952;0.0-7.0;0;[1,0];NULL;NULL;5cc0813b8c322e00159125b3;typicality
282;1924.32;"<p>Now you will answer a few questions.</p><p>Press any key to continue.</p>";32;html-keyboard-response;8;191381;0.0-8.0;NULL;NULL;NULL;NULL;5cc0813b8c322e00159125b3;typicality
283;24561.5;NULL;NULL;survey-text;9;216467;0.0-9.0;NULL;NULL;"{"HowManyHours":"9","HowManyYears":"31"}";NULL;5cc0813b8c322e00159125b3;typicality
284;31405.9;NULL;NULL;survey-multi-select;10;248391;0.0-10.0;NULL;NULL;"{"Q0":["I took/take general music in primary school.","I took/take private music lessons.","I took/take instrumental/choir classes in high school.","I took/take music classes in college.","I was/am a music major in college.","I am pursuing/have received a graduate's degree.","I was/am a professional musician / composer."]}";[0];5cc0813b8c322e00159125b3;typicality
285;3744.8;"<div style='max-width:700px;'><p>For this experiment, you will listen to 5 pairs of rhythms and choose which rhythm in each pair sounds more unusual.</p><p>You will need to be able to hear audio in order to complete the experiment.</p><p>Press any key to ";32;html-keyboard-response;0;3752;0.0-0.0;NULL;NULL;NULL;NULL;5cab2e4908de92001868b324;typicality
286;NULL;base64.wav;NULL;audio-keyboard-response;1;9767;0.0-1.0-0.0;NULL;NULL;NULL;NULL;5cab2e4908de92001868b324;typicality
287;1580.79;base64.wav;87;audio-keyboard-response;2;11352;0.0-1.1-0.1;NULL;NULL;NULL;NULL;5cab2e4908de92001868b324;typicality
288;31822;"["patterns/Rhythm-18.mp3","patterns/Rhythm-19.mp3"]";NULL;forced-choice-audio;3;43181;0.0-2.0;1;[0,1];NULL;NULL;5cab2e4908de92001868b324;typicality
289;25928;"["patterns/Rhythm-48.mp3","patterns/Rhythm-60.mp3"]";NULL;forced-choice-audio;4;69611;0.0-3.0;0;[0,1];NULL;NULL;5cab2e4908de92001868b324;typicality
290;24590.4;"["patterns/Rhythm-30.mp3","patterns/Rhythm-50.mp3"]";NULL;forced-choice-audio;5;94707;0.0-4.0;0;[0,1];NULL;NULL;5cab2e4908de92001868b324;typicality
291;26197.3;"["patterns/Rhythm-25.mp3","patterns/Rhythm-19.mp3"]";NULL;forced-choice-audio;6;121411;0.0-5.0;1;[0,1];NULL;NULL;5cab2e4908de92001868b324;typicality
292;23950.6;"["patterns/Rhythm-7.mp3","patterns/Rhythm-12.mp3"]";NULL;forced-choice-audio;7;145866;0.0-6.0;1;[0,1];NULL;NULL;5cab2e4908de92001868b324;typicality
293;25119.5;"["patterns/Rhythm-18.mp3","patterns/Rhythm-13.mp3"]";NULL;forced-choice-audio;8;171499;0.0-7.0;1;[0,1];NULL;NULL;5cab2e4908de92001868b324;typicality
294;2205.11;"<p>Now you will answer a few questions.</p><p>Press any key to continue.</p>";32;html-keyboard-response;9;174207;0.0-8.0;NULL;NULL;NULL;NULL;5cab2e4908de92001868b324;typicality
295;9802.3;NULL;NULL;survey-text;10;184525;0.0-9.0;NULL;NULL;"{"HowManyHours":"3","HowManyYears":"0"}";NULL;5cab2e4908de92001868b324;typicality
296;9135.04;NULL;NULL;survey-multi-select;11;194173;0.0-10.0;NULL;NULL;"{"Q0":["I took/take private music lessons."]}";[0];5cab2e4908de92001868b324;typicality
297;9800.73;"<div style='max-width:700px;'><p>For this experiment, you will listen to 5 pairs of rhythms and choose which rhythm in each pair you like more.</p><p>You will need to be able to hear audio in order to complete the experiment.</p><p>Press any key to contin";32;html-keyboard-response;0;9804;0.0-0.0;NULL;NULL;NULL;NULL;5d15c84140218700019a0697;preference
298;NULL;base64.wav;NULL;audio-keyboard-response;1;15810;0.0-1.0-0.0;NULL;NULL;NULL;NULL;5d15c84140218700019a0697;preference
299;227.66;base64.wav;87;audio-keyboard-response;2;16039;0.0-1.1-0.1;NULL;NULL;NULL;NULL;5d15c84140218700019a0697;preference
300;49469.9;"["patterns/Rhythm-4.mp3","patterns/Rhythm-39.mp3"]";NULL;forced-choice-audio;3;65513;0.0-2.0;0;[0,1,0];NULL;NULL;5d15c84140218700019a0697;preference
301;38305.6;"["patterns/Rhythm-7.mp3","patterns/Rhythm-69.mp3"]";NULL;forced-choice-audio;4;104327;0.0-3.0;0;[0,1,1];NULL;NULL;5d15c84140218700019a0697;preference
302;28044.3;"["patterns/Rhythm-81.mp3","patterns/Rhythm-78.mp3"]";NULL;forced-choice-audio;5;132876;0.0-4.0;1;[0,1];NULL;NULL;5d15c84140218700019a0697;preference
303;25358;"["patterns/Rhythm-42.mp3","patterns/Rhythm-39.mp3"]";NULL;forced-choice-audio;6;158736;0.0-5.0;1;[0,1];NULL;NULL;5d15c84140218700019a0697;preference
304;25372.2;"["patterns/Rhythm-23.mp3","patterns/Rhythm-84.mp3"]";NULL;forced-choice-audio;7;184613;0.0-6.0;0;[0,1];NULL;NULL;5d15c84140218700019a0697;preference
305;23802;"["patterns/Rhythm-4.mp3","patterns/Rhythm-48.mp3"]";NULL;forced-choice-audio;8;208922;0.0-7.0;1;[0,1];NULL;NULL;5d15c84140218700019a0697;preference
306;4249.32;"<p>Now you will answer a few questions.</p><p>Press any key to continue.</p>";32;html-keyboard-response;9;213677;0.0-8.0;NULL;NULL;NULL;NULL;5d15c84140218700019a0697;preference
307;48470.6;NULL;NULL;survey-text;10;262653;0.0-9.0;NULL;NULL;"{"HowManyHours":"5","HowManyYears":"4"}";NULL;5d15c84140218700019a0697;preference
308;35064.1;NULL;NULL;survey-multi-select;11;298225;0.0-10.0;NULL;NULL;"{"Q0":["I took/take music classes in college.","I am pursuing/have received a graduate's degree.","I was/am a professional musician / composer."]}";[0];5d15c84140218700019a0697;preference
309;16770.4;"<div style='max-width:700px;'><p>For this experiment, you will listen to 5 pairs of rhythms and choose which rhythm in each pair sounds more unusual.</p><p>You will need to be able to hear audio in order to complete the experiment.</p><p>Press any key to ";32;html-keyboard-response;0;16777;0.0-0.0;NULL;NULL;NULL;NULL;5c270d8f2c45d400014909e8;typicality
310;NULL;base64.wav;NULL;audio-keyboard-response;1;22786;0.0-1.0-0.0;NULL;NULL;NULL;NULL;5c270d8f2c45d400014909e8;typicality
311;997.515;base64.wav;87;audio-keyboard-response;2;23786;0.0-1.1-0.1;NULL;NULL;NULL;NULL;5c270d8f2c45d400014909e8;typicality
312;31956.2;"["patterns/Rhythm-89.mp3","patterns/Rhythm-72.mp3"]";NULL;forced-choice-audio;3;55745;0.0-2.0;0;[0,1];NULL;NULL;5c270d8f2c45d400014909e8;typicality
313;31328.2;"["patterns/Rhythm-0.mp3","patterns/Rhythm-68.mp3"]";NULL;forced-choice-audio;4;87579;0.0-3.0;1;[0,1];NULL;NULL;5c270d8f2c45d400014909e8;typicality
314;25913.1;"["patterns/Rhythm-14.mp3","patterns/Rhythm-44.mp3"]";NULL;forced-choice-audio;5;113999;0.0-4.0;1;[0,1];NULL;NULL;5c270d8f2c45d400014909e8;typicality
315;29963.6;"["patterns/Rhythm-76.mp3","patterns/Rhythm-72.mp3"]";NULL;forced-choice-audio;6;144467;0.0-5.0;0;[0,1];NULL;NULL;5c270d8f2c45d400014909e8;typicality
316;60941.8;"["patterns/Rhythm-13.mp3","patterns/Rhythm-1.mp3"]";NULL;forced-choice-audio;7;205915;0.0-6.0;0;[0,1,0,1];NULL;NULL;5c270d8f2c45d400014909e8;typicality
317;23782.3;"["patterns/Rhythm-89.mp3","patterns/Rhythm-43.mp3"]";NULL;forced-choice-audio;8;230200;0.0-7.0;1;[0,1];NULL;NULL;5c270d8f2c45d400014909e8;typicality
318;3093.13;"<p>Now you will answer a few questions.</p><p>Press any key to continue.</p>";32;html-keyboard-response;9;233795;0.0-8.0;NULL;NULL;NULL;NULL;5c270d8f2c45d400014909e8;typicality
319;30144.2;NULL;NULL;survey-text;10;264448;0.0-9.0;NULL;NULL;"{"HowManyHours":"15","HowManyYears":"25"}";NULL;5c270d8f2c45d400014909e8;typicality
320;17949.9;NULL;NULL;survey-multi-select;11;282908;0.0-10.0;NULL;NULL;"{"Q0":["I took/take general music in primary school.","I took/take private music lessons.","I took/take instrumental/choir classes in high school.","I took/take music classes in college."]}";[0];5c270d8f2c45d400014909e8;typicality
321;11964;"<div style='max-width:700px;'><p>For this experiment, you will listen to 5 pairs of rhythms and choose which rhythm in each pair sounds more unusual.</p><p>You will need to be able to hear audio in order to complete the experiment.</p><p>Press any key to ";74;html-keyboard-response;0;11970;0.0-0.0;NULL;NULL;NULL;NULL;5bb87f3ab1012f00013a65fc;typicality
322;4581;base64.wav;87;audio-keyboard-response;1;17058;0.0-1.0-0.0;NULL;NULL;NULL;NULL;5bb87f3ab1012f00013a65fc;typicality
323;32125;"["patterns/Rhythm-29.mp3","patterns/Rhythm-99.mp3"]";NULL;forced-choice-audio;2;49188;0.0-2.0;1;[0,1];NULL;NULL;5bb87f3ab1012f00013a65fc;typicality
324;27989;"["patterns/Rhythm-14.mp3","patterns/Rhythm-43.mp3"]";NULL;forced-choice-audio;3;77684;0.0-3.0;0;[1,0];NULL;NULL;5bb87f3ab1012f00013a65fc;typicality
325;25174;"["patterns/Rhythm-70.mp3","patterns/Rhythm-50.mp3"]";NULL;forced-choice-audio;4;103360;0.0-4.0;1;[0,1];NULL;NULL;5bb87f3ab1012f00013a65fc;typicality
326;31637;"["patterns/Rhythm-45.mp3","patterns/Rhythm-99.mp3"]";NULL;forced-choice-audio;5;135505;0.0-5.0;1;[1,0];NULL;NULL;5bb87f3ab1012f00013a65fc;typicality
327;29588;"["patterns/Rhythm-12.mp3","patterns/Rhythm-0.mp3"]";NULL;forced-choice-audio;6;165595;0.0-6.0;1;[0,1];NULL;NULL;5bb87f3ab1012f00013a65fc;typicality
328;51652;"["patterns/Rhythm-29.mp3","patterns/Rhythm-72.mp3"]";NULL;forced-choice-audio;7;217754;0.0-7.0;1;[0,1];NULL;NULL;5bb87f3ab1012f00013a65fc;typicality
329;2237;"<p>Now you will answer a few questions.</p><p>Press any key to continue.</p>";75;html-keyboard-response;8;220493;0.0-8.0;NULL;NULL;NULL;NULL;5bb87f3ab1012f00013a65fc;typicality
330;7418;NULL;NULL;survey-text;9;228417;0.0-9.0;NULL;NULL;"{"HowManyHours":"3","HowManyYears":"0"}";NULL;5bb87f3ab1012f00013a65fc;typicality
331;11552;NULL;NULL;survey-multi-select;10;240475;0.0-10.0;NULL;NULL;"{"Q0":["I took/take general music in primary school."]}";[0];5bb87f3ab1012f00013a65fc;typicality
332;35189.4;"<div style='max-width:700px;'><p>For this experiment, you will listen to 5 pairs of rhythms and choose which rhythm in each pair sounds more unusual.</p><p>You will need to be able to hear audio in order to complete the experiment.</p><p>Press any key to ";32;html-keyboard-response;0;35195;0.0-0.0;NULL;NULL;NULL;NULL;5892290ecc9028000105a951;typicality
333;NULL;base64.wav;NULL;audio-keyboard-response;1;41204;0.0-1.0-0.0;NULL;NULL;NULL;NULL;5892290ecc9028000105a951;typicality
334;137.495;base64.wav;87;audio-keyboard-response;2;41347;0.0-1.1-0.1;NULL;NULL;NULL;NULL;5892290ecc9028000105a951;typicality
335;46567.8;"["patterns/Rhythm-86.mp3","patterns/Rhythm-17.mp3"]";NULL;forced-choice-audio;3;87921;0.0-2.0;1;[0,1];NULL;NULL;5892290ecc9028000105a951;typicality
336;37271.9;"["patterns/Rhythm-24.mp3","patterns/Rhythm-95.mp3"]";NULL;forced-choice-audio;4;125696;0.0-3.0;0;[1,0];NULL;NULL;5892290ecc9028000105a951;typicality
337;28912.8;"["patterns/Rhythm-42.mp3","patterns/Rhythm-43.mp3"]";NULL;forced-choice-audio;5;155113;0.0-4.0;1;[0,1];NULL;NULL;5892290ecc9028000105a951;typicality
338;29537.1;"["patterns/Rhythm-16.mp3","patterns/Rhythm-17.mp3"]";NULL;forced-choice-audio;6;185152;0.0-5.0;1;[0,1];NULL;NULL;5892290ecc9028000105a951;typicality
339;26752.4;"["patterns/Rhythm-15.mp3","patterns/Rhythm-22.mp3"]";NULL;forced-choice-audio;7;212408;0.0-6.0;1;[0,1];NULL;NULL;5892290ecc9028000105a951;typicality
340;27520.4;"["patterns/Rhythm-86.mp3","patterns/Rhythm-32.mp3"]";NULL;forced-choice-audio;8;240432;0.0-7.0;1;[0,1];NULL;NULL;5892290ecc9028000105a951;typicality
341;2651.07;"<p>Now you will answer a few questions.</p><p>Press any key to continue.</p>";32;html-keyboard-response;9;243585;0.0-8.0;NULL;NULL;NULL;NULL;5892290ecc9028000105a951;typicality
342;14682.4;NULL;NULL;survey-text;10;258776;0.0-9.0;NULL;NULL;"{"HowManyHours":"3","HowManyYears":"0"}";NULL;5892290ecc9028000105a951;typicality
343;14277.4;NULL;NULL;survey-multi-select;11;273560;0.0-10.0;NULL;NULL;"{"Q0":["I took/take general music in primary school."]}";[0];5892290ecc9028000105a951;typicality
344;9180.82;"<div style='max-width:700px;'><p>For this experiment, you will listen to 5 pairs of rhythms and choose which rhythm in each pair you like more.</p><p>You will need to be able to hear audio in order to complete the experiment.</p><p>Press any key to contin";38;html-keyboard-response;0;9184;0.0-0.0;NULL;NULL;NULL;NULL;5c4770eb7379d8000112a4d2;preference
345;NULL;base64.wav;NULL;audio-keyboard-response;1;15187;0.0-1.0-0.0;NULL;NULL;NULL;NULL;5c4770eb7379d8000112a4d2;preference
346;1362.19;base64.wav;87;audio-keyboard-response;2;16550;0.0-1.1-0.1;NULL;NULL;NULL;NULL;5c4770eb7379d8000112a4d2;preference
347;26211.6;"["patterns/Rhythm-59.mp3","patterns/Rhythm-91.mp3"]";NULL;forced-choice-audio;3;42763;0.0-2.0;1;[0,1];NULL;NULL;5c4770eb7379d8000112a4d2;preference
348;23012.8;"["patterns/Rhythm-16.mp3","patterns/Rhythm-13.mp3"]";NULL;forced-choice-audio;4;66277;0.0-3.0;0;[0,1,0];NULL;NULL;5c4770eb7379d8000112a4d2;preference
349;22991.3;"["patterns/Rhythm-2.mp3","patterns/Rhythm-45.mp3"]";NULL;forced-choice-audio;5;89769;0.0-4.0;1;[0,1];NULL;NULL;5c4770eb7379d8000112a4d2;preference
350;22026.5;"["patterns/Rhythm-35.mp3","patterns/Rhythm-91.mp3"]";NULL;forced-choice-audio;6;112299;0.0-5.0;1;[0,1];NULL;NULL;5c4770eb7379d8000112a4d2;preference
351;23835.5;"["patterns/Rhythm-4.mp3","patterns/Rhythm-81.mp3"]";NULL;forced-choice-audio;7;136635;0.0-6.0;1;[0,1];NULL;NULL;5c4770eb7379d8000112a4d2;preference
352;24809.8;"["patterns/Rhythm-59.mp3","patterns/Rhythm-44.mp3"]";NULL;forced-choice-audio;8;161947;0.0-7.0;0;[0,1,0];NULL;NULL;5c4770eb7379d8000112a4d2;preference
353;2561.1;"<p>Now you will answer a few questions.</p><p>Press any key to continue.</p>";38;html-keyboard-response;9;165010;0.0-8.0;NULL;NULL;NULL;NULL;5c4770eb7379d8000112a4d2;preference
354;27406.6;NULL;NULL;survey-text;10;192920;0.0-9.0;NULL;NULL;"{"HowManyHours":"4.5","HowManyYears":"3"}";NULL;5c4770eb7379d8000112a4d2;preference
355;11605.2;NULL;NULL;survey-multi-select;11;205030;0.0-10.0;NULL;NULL;"{"Q0":["I took/take private music lessons.","I took/take instrumental/choir classes in high school."]}";[0];5c4770eb7379d8000112a4d2;preference
356;4786.19;"<div style='max-width:700px;'><p>For this experiment, you will listen to 5 pairs of rhythms and choose which rhythm in each pair sounds more unusual.</p><p>You will need to be able to hear audio in order to complete the experiment.</p><p>Press any key to ";32;html-keyboard-response;0;4789;0.0-0.0;NULL;NULL;NULL;NULL;57a7abb9ad1a6c0001468d45;typicality
357;NULL;base64.wav;NULL;audio-keyboard-response;1;10792;0.0-1.0-0.0;NULL;NULL;NULL;NULL;57a7abb9ad1a6c0001468d45;typicality
358;NULL;base64.wav;NULL;audio-keyboard-response;2;16296;0.0-1.1-0.1;NULL;NULL;NULL;NULL;57a7abb9ad1a6c0001468d45;typicality
359;4612.82;base64.wav;87;audio-keyboard-response;3;20910;0.0-1.2-0.2;NULL;NULL;NULL;NULL;57a7abb9ad1a6c0001468d45;typicality
360;29848.4;"["patterns/Rhythm-1.mp3","patterns/Rhythm-16.mp3"]";NULL;forced-choice-audio;4;50760;0.0-2.0;1;[0,1];NULL;NULL;57a7abb9ad1a6c0001468d45;typicality
361;27226.2;"["patterns/Rhythm-19.mp3","patterns/Rhythm-68.mp3"]";NULL;forced-choice-audio;5;78489;0.0-3.0;0;[0,1];NULL;NULL;57a7abb9ad1a6c0001468d45;typicality
362;28169.3;"["patterns/Rhythm-59.mp3","patterns/Rhythm-81.mp3"]";NULL;forced-choice-audio;6;107160;0.0-4.0;1;[0,1];NULL;NULL;57a7abb9ad1a6c0001468d45;typicality
363;38314.7;"["patterns/Rhythm-71.mp3","patterns/Rhythm-16.mp3"]";NULL;forced-choice-audio;7;145976;0.0-5.0;1;[0,1,0];NULL;NULL;57a7abb9ad1a6c0001468d45;typicality
364;23441.4;"["patterns/Rhythm-83.mp3","patterns/Rhythm-14.mp3"]";NULL;forced-choice-audio;8;169920;0.0-6.0;0;[0,1];NULL;NULL;57a7abb9ad1a6c0001468d45;typicality
365;24753.8;"["patterns/Rhythm-1.mp3","patterns/Rhythm-62.mp3"]";NULL;forced-choice-audio;9;195176;0.0-7.0;1;[0,1];NULL;NULL;57a7abb9ad1a6c0001468d45;typicality
366;2413.53;"<p>Now you will answer a few questions.</p><p>Press any key to continue.</p>";32;html-keyboard-response;10;198091;0.0-8.0;NULL;NULL;NULL;NULL;57a7abb9ad1a6c0001468d45;typicality
367;21700.1;NULL;NULL;survey-text;11;220297;0.0-9.0;NULL;NULL;"{"HowManyHours":"2","HowManyYears":"1"}";NULL;57a7abb9ad1a6c0001468d45;typicality
368;8792.03;NULL;NULL;survey-multi-select;12;229592;0.0-10.0;NULL;NULL;"{"Q0":["I took/take instrumental/choir classes in high school."]}";[0];57a7abb9ad1a6c0001468d45;typicality
369;7407.9;"<div style='max-width:700px;'><p>For this experiment, you will listen to 5 pairs of rhythms and choose which rhythm in each pair you like more.</p><p>You will need to be able to hear audio in order to complete the experiment.</p><p>Press any key to contin";32;html-keyboard-response;0;7410;0.0-0.0;NULL;NULL;NULL;NULL;5d4c4d6a03b3060015d3a18f;preference
370;NULL;base64.wav;NULL;audio-keyboard-response;1;13445;0.0-1.0-0.0;NULL;NULL;NULL;NULL;5d4c4d6a03b3060015d3a18f;preference
371;NULL;base64.wav;NULL;audio-keyboard-response;2;18955;0.0-1.1-0.1;NULL;NULL;NULL;NULL;5d4c4d6a03b3060015d3a18f;preference
372;NULL;base64.wav;NULL;audio-keyboard-response;3;24431;0.0-1.2-0.2;NULL;NULL;NULL;NULL;5d4c4d6a03b3060015d3a18f;preference
373;4484.8;base64.wav;87;audio-keyboard-response;4;28917;0.0-1.3-0.3;NULL;NULL;NULL;NULL;5d4c4d6a03b3060015d3a18f;preference
374;45404.4;"["patterns/Rhythm-55.mp3","patterns/Rhythm-97.mp3"]";NULL;forced-choice-audio;5;74325;0.0-2.0;0;[0,1,0];NULL;NULL;5d4c4d6a03b3060015d3a18f;preference
375;25267.8;"["patterns/Rhythm-61.mp3","patterns/Rhythm-40.mp3"]";NULL;forced-choice-audio;6;100108;0.0-3.0;1;[0,1];NULL;NULL;5d4c4d6a03b3060015d3a18f;preference
376;23900.7;"["patterns/Rhythm-94.mp3","patterns/Rhythm-38.mp3"]";NULL;forced-choice-audio;7;124518;0.0-4.0;1;[0,1];NULL;NULL;5d4c4d6a03b3060015d3a18f;preference
377;23854.3;"["patterns/Rhythm-36.mp3","patterns/Rhythm-97.mp3"]";NULL;forced-choice-audio;8;148886;0.0-5.0;1;[0,1];NULL;NULL;5d4c4d6a03b3060015d3a18f;preference
378;23567.9;"["patterns/Rhythm-88.mp3","patterns/Rhythm-20.mp3"]";NULL;forced-choice-audio;9;172975;0.0-6.0;0;[0,1];NULL;NULL;5d4c4d6a03b3060015d3a18f;preference
379;24299.4;"["patterns/Rhythm-55.mp3","patterns/Rhythm-4.mp3"]";NULL;forced-choice-audio;10;197790;0.0-7.0;1;[0,1];NULL;NULL;5d4c4d6a03b3060015d3a18f;preference
380;4023.1;"<p>Now you will answer a few questions.</p><p>Press any key to continue.</p>";32;html-keyboard-response;11;202317;0.0-8.0;NULL;NULL;NULL;NULL;5d4c4d6a03b3060015d3a18f;preference
381;22425.2;NULL;NULL;survey-text;12;225265;0.0-9.0;NULL;NULL;"{"HowManyHours":"5","HowManyYears":"0"}";NULL;5d4c4d6a03b3060015d3a18f;preference
382;13118.4;NULL;NULL;survey-multi-select;13;238901;0.0-10.0;NULL;NULL;"{"Q0":["I took/take general music in primary school."]}";[0];5d4c4d6a03b3060015d3a18f;preference
383;9011.62;"<div style='max-width:700px;'><p>For this experiment, you will listen to 5 pairs of rhythms and choose which rhythm in each pair you like more.</p><p>You will need to be able to hear audio in order to complete the experiment.</p><p>Press any key to contin";32;html-keyboard-response;0;9016;0.0-0.0;NULL;NULL;NULL;NULL;57504af8119192000651eb8b;preference
384;5007.04;base64.wav;87;audio-keyboard-response;1;14530;0.0-1.0-0.0;NULL;NULL;NULL;NULL;57504af8119192000651eb8b;preference
385;49607.5;"["patterns/Rhythm-58.mp3","patterns/Rhythm-76.mp3"]";NULL;forced-choice-audio;2;64143;0.0-2.0;0;[0,1,0,1];NULL;NULL;57504af8119192000651eb8b;preference
386;34708.5;"["patterns/Rhythm-73.mp3","patterns/Rhythm-69.mp3"]";NULL;forced-choice-audio;3;99355;0.0-3.0;0;[0,1,0];NULL;NULL;57504af8119192000651eb8b;preference
387;23497.9;"["patterns/Rhythm-3.mp3","patterns/Rhythm-6.mp3"]";NULL;forced-choice-audio;4;123355;0.0-4.0;0;[0,1];NULL;NULL;57504af8119192000651eb8b;preference
388;22277.4;"["patterns/Rhythm-48.mp3","patterns/Rhythm-76.mp3"]";NULL;forced-choice-audio;5;146146;0.0-5.0;0;[0,1];NULL;NULL;57504af8119192000651eb8b;preference
389;22518.8;"["patterns/Rhythm-85.mp3","patterns/Rhythm-84.mp3"]";NULL;forced-choice-audio;6;169168;0.0-6.0;0;[0,1];NULL;NULL;57504af8119192000651eb8b;preference
390;23416.8;"["patterns/Rhythm-58.mp3","patterns/Rhythm-13.mp3"]";NULL;forced-choice-audio;7;193081;0.0-7.0;0;[0,1];NULL;NULL;57504af8119192000651eb8b;preference
391;2819.52;"<p>Now you will answer a few questions.</p><p>Press any key to continue.</p>";32;html-keyboard-response;8;196403;0.0-8.0;NULL;NULL;NULL;NULL;57504af8119192000651eb8b;preference
392;16242.7;NULL;NULL;survey-text;9;213162;0.0-9.0;NULL;NULL;"{"HowManyHours":"15","HowManyYears":"0"}";NULL;57504af8119192000651eb8b;preference
393;8791.08;NULL;NULL;survey-multi-select;10;222462;0.0-10.0;NULL;NULL;"{"Q0":["I took/take general music in primary school."]}";[0];57504af8119192000651eb8b;preference
394;8246.92;"<div style='max-width:700px;'><p>For this experiment, you will listen to 5 pairs of rhythms and choose which rhythm in each pair sounds more unusual.</p><p>You will need to be able to hear audio in order to complete the experiment.</p><p>Press any key to ";191;html-keyboard-response;0;8257;0.0-0.0;NULL;NULL;NULL;NULL;5c5a4ba43312f1000112ecc4;typicality
395;NULL;base64.wav;NULL;audio-keyboard-response;1;14270;0.0-1.0-0.0;NULL;NULL;NULL;NULL;5c5a4ba43312f1000112ecc4;typicality
396;NULL;base64.wav;NULL;audio-keyboard-response;2;19777;0.0-1.1-0.1;NULL;NULL;NULL;NULL;5c5a4ba43312f1000112ecc4;typicality
397;NULL;base64.wav;NULL;audio-keyboard-response;3;25285;0.0-1.2-0.2;NULL;NULL;NULL;NULL;5c5a4ba43312f1000112ecc4;typicality
398;NULL;base64.wav;NULL;audio-keyboard-response;4;30789;0.0-1.3-0.3;NULL;NULL;NULL;NULL;5c5a4ba43312f1000112ecc4;typicality
399;NULL;base64.wav;NULL;audio-keyboard-response;5;36291;0.0-1.4-0.4;NULL;NULL;NULL;NULL;5c5a4ba43312f1000112ecc4;typicality
400;NULL;base64.wav;NULL;audio-keyboard-response;6;41806;0.0-1.5-0.5;NULL;NULL;NULL;NULL;5c5a4ba43312f1000112ecc4;typicality
401;219.35;base64.wav;87;audio-keyboard-response;7;42032;0.0-1.6-0.6;NULL;NULL;NULL;NULL;5c5a4ba43312f1000112ecc4;typicality
402;30770.9;"["patterns/Rhythm-76.mp3","patterns/Rhythm-26.mp3"]";NULL;forced-choice-audio;8;72812;0.0-2.0;1;[0,1];NULL;NULL;5c5a4ba43312f1000112ecc4;typicality
403;23475.5;"["patterns/Rhythm-65.mp3","patterns/Rhythm-34.mp3"]";NULL;forced-choice-audio;9;96795;0.0-3.0;0;[0,1];NULL;NULL;5c5a4ba43312f1000112ecc4;typicality
404;22669.4;"["patterns/Rhythm-73.mp3","patterns/Rhythm-4.mp3"]";NULL;forced-choice-audio;10;119977;0.0-4.0;0;[0,1];NULL;NULL;5c5a4ba43312f1000112ecc4;typicality
405;29077.8;"["patterns/Rhythm-93.mp3","patterns/Rhythm-26.mp3"]";NULL;forced-choice-audio;11;149565;0.0-5.0;1;[0,1];NULL;NULL;5c5a4ba43312f1000112ecc4;typicality
406;98118.4;"["patterns/Rhythm-32.mp3","patterns/Rhythm-10.mp3"]";NULL;forced-choice-audio;12;248188;0.0-6.0;0;[0,0,1];NULL;NULL;5c5a4ba43312f1000112ecc4;typicality
407;42018.5;"["patterns/Rhythm-76.mp3","patterns/Rhythm-96.mp3"]";NULL;forced-choice-audio;13;290715;0.0-7.0;1;[0,1];NULL;NULL;5c5a4ba43312f1000112ecc4;typicality
408;9960.54;"<p>Now you will answer a few questions.</p><p>Press any key to continue.</p>";188;html-keyboard-response;14;301179;0.0-8.0;NULL;NULL;NULL;NULL;5c5a4ba43312f1000112ecc4;typicality
409;27390.7;NULL;NULL;survey-text;15;329085;0.0-9.0;NULL;NULL;"{"HowManyHours":"6 hours","HowManyYears":"1"}";NULL;5c5a4ba43312f1000112ecc4;typicality
410;10428.7;NULL;NULL;survey-multi-select;16;340062;0.0-10.0;NULL;NULL;"{"Q0":["I took/take private music lessons."]}";[0];5c5a4ba43312f1000112ecc4;typicality
411;8263.82;"<div style='max-width:700px;'><p>For this experiment, you will listen to 5 pairs of rhythms and choose which rhythm in each pair sounds more unusual.</p><p>You will need to be able to hear audio in order to complete the experiment.</p><p>Press any key to ";13;html-keyboard-response;0;8277;0.0-0.0;NULL;NULL;NULL;NULL;5b4dac264bcb5a0001d7d57c;typicality
412;NULL;base64.wav;NULL;audio-keyboard-response;1;14299;0.0-1.0-0.0;NULL;NULL;NULL;NULL;5b4dac264bcb5a0001d7d57c;typicality
413;83.85;base64.wav;87;audio-keyboard-response;2;14395;0.0-1.1-0.1;NULL;NULL;NULL;NULL;5b4dac264bcb5a0001d7d57c;typicality
414;32650.7;"["patterns/Rhythm-29.mp3","patterns/Rhythm-43.mp3"]";NULL;forced-choice-audio;3;47056;0.0-2.0;1;[0,1];NULL;NULL;5b4dac264bcb5a0001d7d57c;typicality
415;25794.9;"["patterns/Rhythm-13.mp3","patterns/Rhythm-75.mp3"]";NULL;forced-choice-audio;4;73357;0.0-3.0;1;[0,1];NULL;NULL;5b4dac264bcb5a0001d7d57c;typicality
416;26847.8;"["patterns/Rhythm-41.mp3","patterns/Rhythm-82.mp3"]";NULL;forced-choice-audio;5;100726;0.0-4.0;1;[0,1];NULL;NULL;5b4dac264bcb5a0001d7d57c;typicality
417;24659.6;"["patterns/Rhythm-11.mp3","patterns/Rhythm-43.mp3"]";NULL;forced-choice-audio;6;125896;0.0-5.0;1;[0,1];NULL;NULL;5b4dac264bcb5a0001d7d57c;typicality
418;24136.6;"["patterns/Rhythm-14.mp3","patterns/Rhythm-18.mp3"]";NULL;forced-choice-audio;7;150543;0.0-6.0;1;[0,1];NULL;NULL;5b4dac264bcb5a0001d7d57c;typicality
419;22649.6;"["patterns/Rhythm-29.mp3","patterns/Rhythm-94.mp3"]";NULL;forced-choice-audio;8;173704;0.0-7.0;1;[0,1];NULL;NULL;5b4dac264bcb5a0001d7d57c;typicality
420;2439.41;"<p>Now you will answer a few questions.</p><p>Press any key to continue.</p>";32;html-keyboard-response;9;176652;0.0-8.0;NULL;NULL;NULL;NULL;5b4dac264bcb5a0001d7d57c;typicality
421;30956.1;NULL;NULL;survey-text;10;208137;0.0-9.0;NULL;NULL;"{"HowManyHours":"6","HowManyYears":"1"}";NULL;5b4dac264bcb5a0001d7d57c;typicality
422;9925.99;NULL;NULL;survey-multi-select;11;218591;0.0-10.0;NULL;NULL;"{"Q0":["I took/take general music in primary school.","I took/take instrumental/choir classes in high school."]}";[0];5b4dac264bcb5a0001d7d57c;typicality
423;5225.6;"<div style='max-width:700px;'><p>For this experiment, you will listen to 5 pairs of rhythms and choose which rhythm in each pair you like more.</p><p>You will need to be able to hear audio in order to complete the experiment.</p><p>Press any key to contin";70;html-keyboard-response;0;5227;0.0-0.0;NULL;NULL;NULL;NULL;58a1039276c5b700016612d5;preference
424;4890.22;base64.wav;87;audio-keyboard-response;1;10622;0.0-1.0-0.0;NULL;NULL;NULL;NULL;58a1039276c5b700016612d5;preference
425;26807.3;"["patterns/Rhythm-49.mp3","patterns/Rhythm-12.mp3"]";NULL;forced-choice-audio;2;37435;0.0-2.0;1;[0,1];NULL;NULL;58a1039276c5b700016612d5;preference
426;41808.1;"["patterns/Rhythm-51.mp3","patterns/Rhythm-38.mp3"]";NULL;forced-choice-audio;3;79745;0.0-3.0;1;[0,1,0,1];NULL;NULL;58a1039276c5b700016612d5;preference
427;23456.2;"["patterns/Rhythm-72.mp3","patterns/Rhythm-84.mp3"]";NULL;forced-choice-audio;4;103704;0.0-4.0;0;[0,1];NULL;NULL;58a1039276c5b700016612d5;preference
428;32064.1;"["patterns/Rhythm-85.mp3","patterns/Rhythm-12.mp3"]";NULL;forced-choice-audio;5;136271;0.0-5.0;0;[0,1,0];NULL;NULL;58a1039276c5b700016612d5;preference
429;22337.9;"["patterns/Rhythm-47.mp3","patterns/Rhythm-43.mp3"]";NULL;forced-choice-audio;6;159111;0.0-6.0;0;[0,1];NULL;NULL;58a1039276c5b700016612d5;preference
430;23168.4;"["patterns/Rhythm-49.mp3","patterns/Rhythm-91.mp3"]";NULL;forced-choice-audio;7;182781;0.0-7.0;1;[0,1];NULL;NULL;58a1039276c5b700016612d5;preference
431;1498.9;"<p>Now you will answer a few questions.</p><p>Press any key to continue.</p>";74;html-keyboard-response;8;184781;0.0-8.0;NULL;NULL;NULL;NULL;58a1039276c5b700016612d5;preference
432;29815.8;NULL;NULL;survey-text;9;215101;0.0-9.0;NULL;NULL;"{"HowManyHours":"15","HowManyYears":"3"}";NULL;58a1039276c5b700016612d5;preference
433;35537.3;NULL;NULL;survey-multi-select;10;251148;0.0-10.0;NULL;NULL;"{"Q0":["I took/take general music in primary school.","I took/take private music lessons.","I took/take music classes in college."]}";[0];58a1039276c5b700016612d5;preference
434;4483.48;"<div style='max-width:700px;'><p>For this experiment, you will listen to 5 pairs of rhythms and choose which rhythm in each pair you like more.</p><p>You will need to be able to hear audio in order to complete the experiment.</p><p>Press any key to contin";72;html-keyboard-response;0;4486;0.0-0.0;NULL;NULL;NULL;NULL;5c92928c83a867000176e5db;preference
435;5408.75;base64.wav;87;audio-keyboard-response;1;10406;0.0-1.0-0.0;NULL;NULL;NULL;NULL;5c92928c83a867000176e5db;preference
436;31815.7;"["patterns/Rhythm-72.mp3","patterns/Rhythm-15.mp3"]";NULL;forced-choice-audio;2;42223;0.0-2.0;0;[0,1];NULL;NULL;5c92928c83a867000176e5db;preference
437;26436.4;"["patterns/Rhythm-41.mp3","patterns/Rhythm-80.mp3"]";NULL;forced-choice-audio;3;69172;0.0-3.0;0;[0,1];NULL;NULL;5c92928c83a867000176e5db;preference
438;22504.3;"["patterns/Rhythm-70.mp3","patterns/Rhythm-86.mp3"]";NULL;forced-choice-audio;4;92177;0.0-4.0;1;[0,1];NULL;NULL;5c92928c83a867000176e5db;preference
439;23293.7;"["patterns/Rhythm-64.mp3","patterns/Rhythm-15.mp3"]";NULL;forced-choice-audio;5;115972;0.0-5.0;0;[0,1];NULL;NULL;5c92928c83a867000176e5db;preference
440;22898.3;"["patterns/Rhythm-99.mp3","patterns/Rhythm-20.mp3"]";NULL;forced-choice-audio;6;139383;0.0-6.0;1;[0,1];NULL;NULL;5c92928c83a867000176e5db;preference
441;22220.5;"["patterns/Rhythm-72.mp3","patterns/Rhythm-0.mp3"]";NULL;forced-choice-audio;7;162106;0.0-7.0;0;[0,1];NULL;NULL;5c92928c83a867000176e5db;preference
442;2801.55;"<p>Now you will answer a few questions.</p><p>Press any key to continue.</p>";71;html-keyboard-response;8;165409;0.0-8.0;NULL;NULL;NULL;NULL;5c92928c83a867000176e5db;preference
443;13112.7;NULL;NULL;survey-text;9;179026;0.0-9.0;NULL;NULL;"{"HowManyHours":"2","HowManyYears":"0"}";NULL;5c92928c83a867000176e5db;preference
444;11733.3;NULL;NULL;survey-multi-select;10;191273;0.0-10.0;NULL;NULL;"{"Q0":["I took/take general music in primary school."]}";[0];5c92928c83a867000176e5db;preference
445;9251.98;"<div style='max-width:700px;'><p>For this experiment, you will listen to 5 pairs of rhythms and choose which rhythm in each pair sounds more unusual.</p><p>You will need to be able to hear audio in order to complete the experiment.</p><p>Press any key to ";72;html-keyboard-response;0;9259;0.0-0.0;NULL;NULL;NULL;NULL;5bbb86d40fcf2c00019af26a;typicality
446;NULL;base64.wav;NULL;audio-keyboard-response;1;15267;0.0-1.0-0.0;NULL;NULL;NULL;NULL;5bbb86d40fcf2c00019af26a;typicality
447;1773.61;base64.wav;87;audio-keyboard-response;2;17045;0.0-1.1-0.1;NULL;NULL;NULL;NULL;5bbb86d40fcf2c00019af26a;typicality
448;24128.7;"["patterns/Rhythm-93.mp3","patterns/Rhythm-74.mp3"]";NULL;forced-choice-audio;3;41179;0.0-2.0;1;[1,0];NULL;NULL;5bbb86d40fcf2c00019af26a;typicality
449;24830.1;"["patterns/Rhythm-45.mp3","patterns/Rhythm-0.mp3"]";NULL;forced-choice-audio;4;66513;0.0-3.0;0;[1,0];NULL;NULL;5bbb86d40fcf2c00019af26a;typicality
450;24073.2;"["patterns/Rhythm-17.mp3","patterns/Rhythm-67.mp3"]";NULL;forced-choice-audio;5;91090;0.0-4.0;0;[0,1];NULL;NULL;5bbb86d40fcf2c00019af26a;typicality
451;23349.9;"["patterns/Rhythm-79.mp3","patterns/Rhythm-74.mp3"]";NULL;forced-choice-audio;6;114944;0.0-5.0;1;[0,1];NULL;NULL;5bbb86d40fcf2c00019af26a;typicality
452;24661.1;"["patterns/Rhythm-55.mp3","patterns/Rhythm-8.mp3"]";NULL;forced-choice-audio;7;140109;0.0-6.0;0;[0,1];NULL;NULL;5bbb86d40fcf2c00019af26a;typicality
453;23559.9;"["patterns/Rhythm-93.mp3","patterns/Rhythm-99.mp3"]";NULL;forced-choice-audio;8;164173;0.0-7.0;1;[0,1];NULL;NULL;5bbb86d40fcf2c00019af26a;typicality
454;1842.09;"<p>Now you will answer a few questions.</p><p>Press any key to continue.</p>";66;html-keyboard-response;9;166517;0.0-8.0;NULL;NULL;NULL;NULL;5bbb86d40fcf2c00019af26a;typicality
455;9207.06;NULL;NULL;survey-text;10;176237;0.0-9.0;NULL;NULL;"{"HowManyHours":"4","HowManyYears":"0"}";NULL;5bbb86d40fcf2c00019af26a;typicality
456;8379.27;NULL;NULL;survey-multi-select;11;185127;0.0-10.0;NULL;NULL;"{"Q0":[]}";[0];5bbb86d40fcf2c00019af26a;typicality
457;30715.2;"<div style='max-width:700px;'><p>For this experiment, you will listen to 5 pairs of rhythms and choose which rhythm in each pair you like more.</p><p>You will need to be able to hear audio in order to complete the experiment.</p><p>Press any key to contin";32;html-keyboard-response;0;30719;0.0-0.0;NULL;NULL;NULL;NULL;55bd2286fdf99b3bffb3e141;preference
458;NULL;base64.wav;NULL;audio-keyboard-response;1;36724;0.0-1.0-0.0;NULL;NULL;NULL;NULL;55bd2286fdf99b3bffb3e141;preference
459;1045.58;base64.wav;87;audio-keyboard-response;2;37771;0.0-1.1-0.1;NULL;NULL;NULL;NULL;55bd2286fdf99b3bffb3e141;preference
460;34529.1;"["patterns/Rhythm-78.mp3","patterns/Rhythm-0.mp3"]";NULL;forced-choice-audio;3;72304;0.0-2.0;0;[0,1,0];NULL;NULL;55bd2286fdf99b3bffb3e141;preference
461;30136.3;"["patterns/Rhythm-94.mp3","patterns/Rhythm-61.mp3"]";NULL;forced-choice-audio;4;102944;0.0-3.0;0;[0,1];NULL;NULL;55bd2286fdf99b3bffb3e141;preference
462;22377.4;"["patterns/Rhythm-19.mp3","patterns/Rhythm-96.mp3"]";NULL;forced-choice-audio;5;125824;0.0-4.0;1;[0,1];NULL;NULL;55bd2286fdf99b3bffb3e141;preference
463;23144.3;"["patterns/Rhythm-15.mp3","patterns/Rhythm-0.mp3"]";NULL;forced-choice-audio;6;149471;0.0-5.0;1;[0,1];NULL;NULL;55bd2286fdf99b3bffb3e141;preference
464;22399.7;"["patterns/Rhythm-38.mp3","patterns/Rhythm-65.mp3"]";NULL;forced-choice-audio;7;172375;0.0-6.0;0;[0,1];NULL;NULL;55bd2286fdf99b3bffb3e141;preference
465;23169.3;"["patterns/Rhythm-78.mp3","patterns/Rhythm-2.mp3"]";NULL;forced-choice-audio;8;196047;0.0-7.0;0;[0,1];NULL;NULL;55bd2286fdf99b3bffb3e141;preference
466;2711.66;"<p>Now you will answer a few questions.</p><p>Press any key to continue.</p>";32;html-keyboard-response;9;199261;0.0-8.0;NULL;NULL;NULL;NULL;55bd2286fdf99b3bffb3e141;preference
467;43011.6;NULL;NULL;survey-text;10;242779;0.0-9.0;NULL;NULL;"{"HowManyHours":"3","HowManyYears":"1"}";NULL;55bd2286fdf99b3bffb3e141;preference
468;28825.4;NULL;NULL;survey-multi-select;11;272112;0.0-10.0;NULL;NULL;"{"Q0":["I took/take music classes in college."]}";[0];55bd2286fdf99b3bffb3e141;preference
469;4626;"<div style='max-width:700px;'><p>For this experiment, you will listen to 5 pairs of rhythms and choose which rhythm in each pair you like more.</p><p>You will need to be able to hear audio in order to complete the experiment.</p><p>Press any key to contin";32;html-keyboard-response;0;4629;0.0-0.0;NULL;NULL;NULL;NULL;5a47b23d7aebf700011540ab;preference
470;4411;base64.wav;87;audio-keyboard-response;1;9573;0.0-1.0-0.0;NULL;NULL;NULL;NULL;5a47b23d7aebf700011540ab;preference
471;27680;"["patterns/Rhythm-60.mp3","patterns/Rhythm-37.mp3"]";NULL;forced-choice-audio;2;37257;0.0-2.0;0;[0,1];NULL;NULL;5a47b23d7aebf700011540ab;preference
472;22389;"["patterns/Rhythm-50.mp3","patterns/Rhythm-20.mp3"]";NULL;forced-choice-audio;3;60150;0.0-3.0;1;[0,1];NULL;NULL;5a47b23d7aebf700011540ab;preference
473;23190;"["patterns/Rhythm-48.mp3","patterns/Rhythm-5.mp3"]";NULL;forced-choice-audio;4;83842;0.0-4.0;1;[0,1];NULL;NULL;5a47b23d7aebf700011540ab;preference
474;22448;"["patterns/Rhythm-78.mp3","patterns/Rhythm-37.mp3"]";NULL;forced-choice-audio;5;106792;0.0-5.0;1;[0,1];NULL;NULL;5a47b23d7aebf700011540ab;preference
475;24529;"["patterns/Rhythm-26.mp3","patterns/Rhythm-55.mp3"]";NULL;forced-choice-audio;6;131822;0.0-6.0;1;[0,1];NULL;NULL;5a47b23d7aebf700011540ab;preference
476;30402;"["patterns/Rhythm-60.mp3","patterns/Rhythm-51.mp3"]";NULL;forced-choice-audio;7;162726;0.0-7.0;1;[0,1];NULL;NULL;5a47b23d7aebf700011540ab;preference
477;940;"<p>Now you will answer a few questions.</p><p>Press any key to continue.</p>";32;html-keyboard-response;8;164168;0.0-8.0;NULL;NULL;NULL;NULL;5a47b23d7aebf700011540ab;preference
478;7583;NULL;NULL;survey-text;9;172267;0.0-9.0;NULL;NULL;"{"HowManyHours":"1","HowManyYears":"0"}";NULL;5a47b23d7aebf700011540ab;preference
479;7524;NULL;NULL;survey-multi-select;10;180294;0.0-10.0;NULL;NULL;"{"Q0":["I am pursuing/have received a graduate's degree."]}";[0];5a47b23d7aebf700011540ab;preference
480;31584.8;"<div style='max-width:700px;'><p>For this experiment, you will listen to 5 pairs of rhythms and choose which rhythm in each pair sounds more unusual.</p><p>You will need to be able to hear audio in order to complete the experiment.</p><p>Press any key to ";74;html-keyboard-response;0;31756;0.0-0.0;NULL;NULL;NULL;NULL;5cd47c535e1fca00156abf7d;typicality
481;5304.2;base64.wav;87;audio-keyboard-response;1;37566;0.0-1.0-0.0;NULL;NULL;NULL;NULL;5cd47c535e1fca00156abf7d;typicality
482;30667.3;"["patterns/Rhythm-73.mp3","patterns/Rhythm-52.mp3"]";NULL;forced-choice-audio;2;68235;0.0-2.0;0;[0,1];NULL;NULL;5cd47c535e1fca00156abf7d;typicality
483;24810.7;"["patterns/Rhythm-72.mp3","patterns/Rhythm-66.mp3"]";NULL;forced-choice-audio;3;93546;0.0-3.0;0;[0,1];NULL;NULL;5cd47c535e1fca00156abf7d;typicality
484;23797.2;"["patterns/Rhythm-27.mp3","patterns/Rhythm-49.mp3"]";NULL;forced-choice-audio;4;117848;0.0-4.0;0;[0,1];NULL;NULL;5cd47c535e1fca00156abf7d;typicality
485;24719.8;"["patterns/Rhythm-80.mp3","patterns/Rhythm-52.mp3"]";NULL;forced-choice-audio;5;143070;0.0-5.0;1;[0,1];NULL;NULL;5cd47c535e1fca00156abf7d;typicality
486;22381.2;"["patterns/Rhythm-11.mp3","patterns/Rhythm-54.mp3"]";NULL;forced-choice-audio;6;165952;0.0-6.0;0;[0,1];NULL;NULL;5cd47c535e1fca00156abf7d;typicality
487;23877.9;"["patterns/Rhythm-73.mp3","patterns/Rhythm-35.mp3"]";NULL;forced-choice-audio;7;190330;0.0-7.0;0;[0,1];NULL;NULL;5cd47c535e1fca00156abf7d;typicality
488;5224.18;"<p>Now you will answer a few questions.</p><p>Press any key to continue.</p>";87;html-keyboard-response;8;196055;0.0-8.0;NULL;NULL;NULL;NULL;5cd47c535e1fca00156abf7d;typicality
489;33242.5;NULL;NULL;survey-text;9;229909;0.0-9.0;NULL;NULL;"{"HowManyHours":"more or less 1 hour a day","HowManyYears":"4 years"}";NULL;5cd47c535e1fca00156abf7d;typicality
490;16049.2;NULL;NULL;survey-multi-select;10;246526;0.0-10.0;NULL;NULL;"{"Q0":["I took/take general music in primary school.","I took/take private music lessons.","I took/take instrumental/choir classes in high school."]}";[0];5cd47c535e1fca00156abf7d;typicality
491;5136.27;"<div style='max-width:700px;'><p>For this experiment, you will listen to 5 pairs of rhythms and choose which rhythm in each pair you like more.</p><p>You will need to be able to hear audio in order to complete the experiment.</p><p>Press any key to contin";72;html-keyboard-response;0;5142;0.0-0.0;NULL;NULL;NULL;NULL;5af3d98ec36b060001f80dbb;preference
492;NULL;base64.wav;NULL;audio-keyboard-response;1;11153;0.0-1.0-0.0;NULL;NULL;NULL;NULL;5af3d98ec36b060001f80dbb;preference
493;1263.56;base64.wav;87;audio-keyboard-response;2;12421;0.0-1.1-0.1;NULL;NULL;NULL;NULL;5af3d98ec36b060001f80dbb;preference
494;33325.8;"["patterns/Rhythm-82.mp3","patterns/Rhythm-48.mp3"]";NULL;forced-choice-audio;3;45752;0.0-2.0;0;[0,1];NULL;NULL;5af3d98ec36b060001f80dbb;preference
495;25601.6;"["patterns/Rhythm-46.mp3","patterns/Rhythm-66.mp3"]";NULL;forced-choice-audio;4;71860;0.0-3.0;0;[0,1];NULL;NULL;5af3d98ec36b060001f80dbb;preference
496;27951.7;"["patterns/Rhythm-53.mp3","patterns/Rhythm-4.mp3"]";NULL;forced-choice-audio;5;100318;0.0-4.0;1;[0,1];NULL;NULL;5af3d98ec36b060001f80dbb;preference
497;25483.6;"["patterns/Rhythm-92.mp3","patterns/Rhythm-48.mp3"]";NULL;forced-choice-audio;6;126307;0.0-5.0;0;[0,1];NULL;NULL;5af3d98ec36b060001f80dbb;preference
498;22957.1;"["patterns/Rhythm-61.mp3","patterns/Rhythm-49.mp3"]";NULL;forced-choice-audio;7;149772;0.0-6.0;0;[0,1];NULL;NULL;5af3d98ec36b060001f80dbb;preference
499;24428.5;"["patterns/Rhythm-82.mp3","patterns/Rhythm-2.mp3"]";NULL;forced-choice-audio;8;174709;0.0-7.0;1;[0,1];NULL;NULL;5af3d98ec36b060001f80dbb;preference
500;1889.05;"<p>Now you will answer a few questions.</p><p>Press any key to continue.</p>";68;html-keyboard-response;9;177101;0.0-8.0;NULL;NULL;NULL;NULL;5af3d98ec36b060001f80dbb;preference
501;25078.7;NULL;NULL;survey-text;10;202698;0.0-9.0;NULL;NULL;"{"HowManyHours":"1","HowManyYears":"0"}";NULL;5af3d98ec36b060001f80dbb;preference
502;16602.1;NULL;NULL;survey-multi-select;11;219810;0.0-10.0;NULL;NULL;"{"Q0":["I took/take general music in primary school."]}";[0];5af3d98ec36b060001f80dbb;preference
503;8999.89;"<div style='max-width:700px;'><p>For this experiment, you will listen to 5 pairs of rhythms and choose which rhythm in each pair you like more.</p><p>You will need to be able to hear audio in order to complete the experiment.</p><p>Press any key to contin";186;html-keyboard-response;0;9004;0.0-0.0;NULL;NULL;NULL;NULL;59d519c6c732930001d88aab;preference
504;NULL;base64.wav;NULL;audio-keyboard-response;1;15008;0.0-1.0-0.0;NULL;NULL;NULL;NULL;59d519c6c732930001d88aab;preference
505;4441.23;base64.wav;87;audio-keyboard-response;2;19451;0.0-1.1-0.1;NULL;NULL;NULL;NULL;59d519c6c732930001d88aab;preference
506;39824.6;"["patterns/Rhythm-4.mp3","patterns/Rhythm-7.mp3"]";NULL;forced-choice-audio;3;59278;0.0-2.0;0;[0,1,0];NULL;NULL;59d519c6c732930001d88aab;preference
507;70840.5;"["patterns/Rhythm-92.mp3","patterns/Rhythm-59.mp3"]";NULL;forced-choice-audio;4;130620;0.0-3.0;0;[0,1,0];NULL;NULL;59d519c6c732930001d88aab;preference
508;28905.3;"["patterns/Rhythm-17.mp3","patterns/Rhythm-69.mp3"]";NULL;forced-choice-audio;5;160028;0.0-4.0;1;[0,1];NULL;NULL;59d519c6c732930001d88aab;preference
509;75576.4;"["patterns/Rhythm-3.mp3","patterns/Rhythm-7.mp3"]";NULL;forced-choice-audio;6;236107;0.0-5.0;1;[0,1,1];NULL;NULL;59d519c6c732930001d88aab;preference
510;22881.9;"["patterns/Rhythm-76.mp3","patterns/Rhythm-19.mp3"]";NULL;forced-choice-audio;7;259491;0.0-6.0;1;[0,1];NULL;NULL;59d519c6c732930001d88aab;preference
511;59345.8;"["patterns/Rhythm-4.mp3","patterns/Rhythm-30.mp3"]";NULL;forced-choice-audio;8;319339;0.0-7.0;1;[0,1,1,1];NULL;NULL;59d519c6c732930001d88aab;preference
512;1942.95;"<p>Now you will answer a few questions.</p><p>Press any key to continue.</p>";76;html-keyboard-response;9;321783;0.0-8.0;NULL;NULL;NULL;NULL;59d519c6c732930001d88aab;preference
513;13775.8;NULL;NULL;survey-text;10;336063;0.0-9.0;NULL;NULL;"{"HowManyHours":"6","HowManyYears":"1"}";NULL;59d519c6c732930001d88aab;preference
514;9418.32;NULL;NULL;survey-multi-select;11;345987;0.0-10.0;NULL;NULL;"{"Q0":["I took/take general music in primary school.","I took/take private music lessons."]}";[0];59d519c6c732930001d88aab;preference
515;12168;"<div style='max-width:700px;'><p>For this experiment, you will listen to 5 pairs of rhythms and choose which rhythm in each pair sounds more unusual.</p><p>You will need to be able to hear audio in order to complete the experiment.</p><p>Press any key to ";75;html-keyboard-response;0;12170;0.0-0.0;NULL;NULL;NULL;NULL;5cbc3630517cd000013111a9;typicality
516;5439.1;base64.wav;87;audio-keyboard-response;1;18121;0.0-1.0-0.0;NULL;NULL;NULL;NULL;5cbc3630517cd000013111a9;typicality
517;42768.3;"["patterns/Rhythm-19.mp3","patterns/Rhythm-39.mp3"]";NULL;forced-choice-audio;2;60892;0.0-2.0;0;[0,1,0,1];NULL;NULL;5cbc3630517cd000013111a9;typicality
518;23803.7;"["patterns/Rhythm-66.mp3","patterns/Rhythm-98.mp3"]";NULL;forced-choice-audio;3;85197;0.0-3.0;1;[0,1];NULL;NULL;5cbc3630517cd000013111a9;typicality
519;29791.1;"["patterns/Rhythm-97.mp3","patterns/Rhythm-88.mp3"]";NULL;forced-choice-audio;4;115491;0.0-4.0;0;[0,1,0];NULL;NULL;5cbc3630517cd000013111a9;typicality
520;26518.9;"["patterns/Rhythm-8.mp3","patterns/Rhythm-39.mp3"]";NULL;forced-choice-audio;5;142513;0.0-5.0;0;[0,1];NULL;NULL;5cbc3630517cd000013111a9;typicality
521;22558.9;"["patterns/Rhythm-48.mp3","patterns/Rhythm-34.mp3"]";NULL;forced-choice-audio;6;165574;0.0-6.0;0;[0,1];NULL;NULL;5cbc3630517cd000013111a9;typicality
522;22020.5;"["patterns/Rhythm-19.mp3","patterns/Rhythm-50.mp3"]";NULL;forced-choice-audio;7;188097;0.0-7.0;1;[0,1];NULL;NULL;5cbc3630517cd000013111a9;typicality
523;3620.04;"<p>Now you will answer a few questions.</p><p>Press any key to continue.</p>";67;html-keyboard-response;8;192219;0.0-8.0;NULL;NULL;NULL;NULL;5cbc3630517cd000013111a9;typicality
524;53591.5;NULL;NULL;survey-text;9;246318;0.0-9.0;NULL;NULL;"{"HowManyHours":"3","HowManyYears":"I studied music theory for 3 years in middle school "}";NULL;5cbc3630517cd000013111a9;typicality
525;30665.9;NULL;NULL;survey-multi-select;10;277494;0.0-10.0;NULL;NULL;"{"Q0":["I took/take general music in primary school."]}";[0];5cbc3630517cd000013111a9;typicality
526;11570.2;"<div style='max-width:700px;'><p>For this experiment, you will listen to 5 pairs of rhythms and choose which rhythm in each pair sounds more unusual.</p><p>You will need to be able to hear audio in order to complete the experiment.</p><p>Press any key to ";32;html-keyboard-response;0;11572;0.0-0.0;NULL;NULL;NULL;NULL;5d48c7adef02920001377575;typicality
527;NULL;base64.wav;NULL;audio-keyboard-response;1;17576;0.0-1.0-0.0;NULL;NULL;NULL;NULL;5d48c7adef02920001377575;typicality
528;210.74;base64.wav;87;audio-keyboard-response;2;17788;0.0-1.1-0.1;NULL;NULL;NULL;NULL;5d48c7adef02920001377575;typicality
529;28872.6;"["patterns/Rhythm-74.mp3","patterns/Rhythm-76.mp3"]";NULL;forced-choice-audio;3;46662;0.0-2.0;0;[0,1];NULL;NULL;5d48c7adef02920001377575;typicality
530;24267;"["patterns/Rhythm-58.mp3","patterns/Rhythm-61.mp3"]";NULL;forced-choice-audio;4;71430;0.0-3.0;1;[0,1];NULL;NULL;5d48c7adef02920001377575;typicality
531;22762.1;"["patterns/Rhythm-83.mp3","patterns/Rhythm-28.mp3"]";NULL;forced-choice-audio;5;94693;0.0-4.0;0;[0,1];NULL;NULL;5d48c7adef02920001377575;typicality
532;27186.6;"["patterns/Rhythm-70.mp3","patterns/Rhythm-76.mp3"]";NULL;forced-choice-audio;6;122381;0.0-5.0;0;[0,1];NULL;NULL;5d48c7adef02920001377575;typicality
533;26387.1;"["patterns/Rhythm-97.mp3","patterns/Rhythm-84.mp3"]";NULL;forced-choice-audio;7;149269;0.0-6.0;1;[0,1];NULL;NULL;5d48c7adef02920001377575;typicality
534;60347.2;"["patterns/Rhythm-74.mp3","patterns/Rhythm-6.mp3"]";NULL;forced-choice-audio;8;210117;0.0-7.0;0;[0,1,1,0];NULL;NULL;5d48c7adef02920001377575;typicality
535;2298.15;"<p>Now you will answer a few questions.</p><p>Press any key to continue.</p>";32;html-keyboard-response;9;212918;0.0-8.0;NULL;NULL;NULL;NULL;5d48c7adef02920001377575;typicality
536;21705.1;NULL;NULL;survey-text;10;235125;0.0-9.0;NULL;NULL;"{"HowManyHours":"6","HowManyYears":"1"}";NULL;5d48c7adef02920001377575;typicality
537;18730.1;NULL;NULL;survey-multi-select;11;254358;0.0-10.0;NULL;NULL;"{"Q0":["I took/take general music in primary school.","I took/take instrumental/choir classes in high school."]}";[0];5d48c7adef02920001377575;typicality
538;17193.3;"<div style='max-width:700px;'><p>For this experiment, you will listen to 5 pairs of rhythms and choose which rhythm in each pair sounds more unusual.</p><p>You will need to be able to hear audio in order to complete the experiment.</p><p>Press any key to ";70;html-keyboard-response;0;17211;0.0-0.0;NULL;NULL;NULL;NULL;5bb6c8c870f8df0001bfbb6c;typicality
539;NULL;base64.wav;NULL;audio-keyboard-response;1;23242;0.0-1.0-0.0;NULL;NULL;NULL;NULL;5bb6c8c870f8df0001bfbb6c;typicality
540;NULL;base64.wav;NULL;audio-keyboard-response;2;28748;0.0-1.1-0.1;NULL;NULL;NULL;NULL;5bb6c8c870f8df0001bfbb6c;typicality
541;NULL;base64.wav;NULL;audio-keyboard-response;3;34256;0.0-1.2-0.2;NULL;NULL;NULL;NULL;5bb6c8c870f8df0001bfbb6c;typicality
542;NULL;base64.wav;NULL;audio-keyboard-response;4;39775;0.0-1.3-0.3;NULL;NULL;NULL;NULL;5bb6c8c870f8df0001bfbb6c;typicality
543;NULL;base64.wav;NULL;audio-keyboard-response;5;45284;0.0-1.4-0.4;NULL;NULL;NULL;NULL;5bb6c8c870f8df0001bfbb6c;typicality
544;NULL;base64.wav;NULL;audio-keyboard-response;6;50800;0.0-1.5-0.5;NULL;NULL;NULL;NULL;5bb6c8c870f8df0001bfbb6c;typicality
545;NULL;base64.wav;NULL;audio-keyboard-response;7;56319;0.0-1.6-0.6;NULL;NULL;NULL;NULL;5bb6c8c870f8df0001bfbb6c;typicality
546;NULL;base64.wav;NULL;audio-keyboard-response;8;61821;0.0-1.7-0.7;NULL;NULL;NULL;NULL;5bb6c8c870f8df0001bfbb6c;typicality
547;NULL;base64.wav;NULL;audio-keyboard-response;9;67323;0.0-1.8-0.8;NULL;NULL;NULL;NULL;5bb6c8c870f8df0001bfbb6c;typicality
548;NULL;base64.wav;NULL;audio-keyboard-response;10;72826;0.0-1.9-0.9;NULL;NULL;NULL;NULL;5bb6c8c870f8df0001bfbb6c;typicality
549;836.3;base64.wav;87;audio-keyboard-response;11;73666;0.0-1.10-0.10;NULL;NULL;NULL;NULL;5bb6c8c870f8df0001bfbb6c;typicality
550;33914.8;"["patterns/Rhythm-78.mp3","patterns/Rhythm-17.mp3"]";NULL;forced-choice-audio;12;107585;0.0-2.0;0;[1,0];NULL;NULL;5bb6c8c870f8df0001bfbb6c;typicality
551;24361.1;"["patterns/Rhythm-73.mp3","patterns/Rhythm-85.mp3"]";NULL;forced-choice-audio;13;132523;0.0-3.0;1;[0,1];NULL;NULL;5bb6c8c870f8df0001bfbb6c;typicality
552;23730.6;"["patterns/Rhythm-43.mp3","patterns/Rhythm-14.mp3"]";NULL;forced-choice-audio;14;156762;0.0-4.0;0;[0,1];NULL;NULL;5bb6c8c870f8df0001bfbb6c;typicality
553;23172.8;"["patterns/Rhythm-37.mp3","patterns/Rhythm-17.mp3"]";NULL;forced-choice-audio;15;180451;0.0-5.0;1;[0,1];NULL;NULL;5bb6c8c870f8df0001bfbb6c;typicality
554;35194.4;"["patterns/Rhythm-38.mp3","patterns/Rhythm-52.mp3"]";NULL;forced-choice-audio;16;216154;0.0-6.0;1;[1,0];NULL;NULL;5bb6c8c870f8df0001bfbb6c;typicality
555;24885.3;"["patterns/Rhythm-78.mp3","patterns/Rhythm-59.mp3"]";NULL;forced-choice-audio;17;241545;0.0-7.0;0;[0,1];NULL;NULL;5bb6c8c870f8df0001bfbb6c;typicality
556;2902;"<p>Now you will answer a few questions.</p><p>Press any key to continue.</p>";71;html-keyboard-response;18;244977;0.0-8.0;NULL;NULL;NULL;NULL;5bb6c8c870f8df0001bfbb6c;typicality
557;21710.7;NULL;NULL;survey-text;19;267205;0.0-9.0;NULL;NULL;"{"HowManyHours":"45","HowManyYears":"2"}";NULL;5bb6c8c870f8df0001bfbb6c;typicality
558;9237.83;NULL;NULL;survey-multi-select;20;276960;0.0-10.0;NULL;NULL;"{"Q0":["I took/take general music in primary school."]}";[0];5bb6c8c870f8df0001bfbb6c;typicality
559;7627.54;"<div style='max-width:700px;'><p>For this experiment, you will listen to 5 pairs of rhythms and choose which rhythm in each pair sounds more unusual.</p><p>You will need to be able to hear audio in order to complete the experiment.</p><p>Press any key to ";32;html-keyboard-response;0;7640;0.0-0.0;NULL;NULL;NULL;NULL;5be1ef2c0753410001566b45;typicality
560;NULL;base64.wav;NULL;audio-keyboard-response;1;13660;0.0-1.0-0.0;NULL;NULL;NULL;NULL;5be1ef2c0753410001566b45;typicality
561;2416.1;base64.wav;87;audio-keyboard-response;2;16083;0.0-1.1-0.1;NULL;NULL;NULL;NULL;5be1ef2c0753410001566b45;typicality
562;28338.2;"["patterns/Rhythm-46.mp3","patterns/Rhythm-53.mp3"]";NULL;forced-choice-audio;3;44420;0.0-2.0;1;[0,1];NULL;NULL;5be1ef2c0753410001566b45;typicality
563;27542.7;"["patterns/Rhythm-36.mp3","patterns/Rhythm-88.mp3"]";NULL;forced-choice-audio;4;72472;0.0-3.0;0;[0,1];NULL;NULL;5be1ef2c0753410001566b45;typicality
564;28648.8;"["patterns/Rhythm-40.mp3","patterns/Rhythm-79.mp3"]";NULL;forced-choice-audio;5;101625;0.0-4.0;1;[0,1];NULL;NULL;5be1ef2c0753410001566b45;typicality
565;39084;"["patterns/Rhythm-50.mp3","patterns/Rhythm-53.mp3"]";NULL;forced-choice-audio;6;141222;0.0-5.0;1;[0,1];NULL;NULL;5be1ef2c0753410001566b45;typicality
566;42159.2;"["patterns/Rhythm-49.mp3","patterns/Rhythm-9.mp3"]";NULL;forced-choice-audio;7;183888;0.0-6.0;1;[0,1];NULL;NULL;5be1ef2c0753410001566b45;typicality
567;25303.1;"["patterns/Rhythm-46.mp3","patterns/Rhythm-32.mp3"]";NULL;forced-choice-audio;8;209697;0.0-7.0;1;[0,1];NULL;NULL;5be1ef2c0753410001566b45;typicality
568;1924.22;"<p>Now you will answer a few questions.</p><p>Press any key to continue.</p>";32;html-keyboard-response;9;212141;0.0-8.0;NULL;NULL;NULL;NULL;5be1ef2c0753410001566b45;typicality
569;10166.3;NULL;NULL;survey-text;10;222823;0.0-9.0;NULL;NULL;"{"HowManyHours":"4","HowManyYears":"0"}";NULL;5be1ef2c0753410001566b45;typicality
